time,seconds_elapsed,z,y,x
"1,70136286270131E+018",0.15331396484375,9.634267807006836,0.5363011956214905,-0.4884171485900879
"1,70136286271133E+018",0.163324951171875,9.787496566772461,0.5650315880775452,-0.5363011956214905
"1,70136286272131E+018",0.173305419921875,9.701305389404297,0.6224924325942993,-0.7182605266571045
"1,70136286273132E+018",0.183316162109375,9.59596061706543,0.40222588181495667,-0.6703764796257019
"1,7013628627413E+018",0.19329638671875,9.567230224609375,0.6512228846549988,-0.5267243981361389
"1,70136286275131E+018",0.203307373046875,9.548076629638672,0.6799532771110535,-0.45010992884635925
"1,70136286276132E+018",0.213318115234375,9.758766174316406,0.5171475410461426,-0.7948749661445618
"1,70136286277133E+018",0.2233291015625,9.873687744140625,0.7374141216278076,-0.6799532771110535
"1,70136286278131E+018",0.23330908203125,9.519346237182617,0.6416460275650024,-0.6416460275650024
"1,70136286279132E+018",0.243320068359375,9.557653427124023,0.6224924325942993,-0.7565677165985107
"1,7013628628013E+018",0.253300537109375,9.509769439697266,0.8236053586006165,-0.5171475410461426
"1,70136286281131E+018",0.263311279296875,9.509769439697266,0.7182605266571045,-0.689530074596405
"1,70136286282132E+018",0.273322021484375,9.749189376831055,0.8619126081466675,-0.5650315880775452
"1,70136286283133E+018",0.283332763671875,9.500192642211914,0.9768342971801758,-0.5171475410461426
"1,70136286284131E+018",0.293313232421875,9.500192642211914,0.8523358106613159,-0.727837324142456
"1,70136286285132E+018",0.30332421875,9.653421401977539,1.091755986213684,-0.727837324142456
"1,7013628628613E+018",0.31330419921875,9.385271072387695,0.9576807022094727,-0.5650315880775452
"1,70136286287132E+018",0.323315185546875,9.653421401977539,1.0342950820922852,-0.7086837291717529
"1,70136286288133E+018",0.333326171875,9.385271072387695,1.292868971824646,-0.5650315880775452
"1,70136286289131E+018",0.34330615234375,9.433155059814453,1.0438719987869263,-0.5746083855628967
"1,70136286290132E+018",0.353317138671875,9.720458984375,1.2066776752471924,-0.8044517636299133
"1,7013628629113E+018",0.363297607421875,9.136273384094238,1.1779472827911377,-0.4213795065879822
"1,70136286292131E+018",0.373308349609375,9.720458984375,1.1109095811843872,-0.7565677165985107
"1,70136286293132E+018",0.383319091796875,9.394847869873047,1.3024457693099976,-0.6033388376235962
"1,7013628629413E+018",0.393299560546875,9.528923034667969,1.0247182846069336,-0.6991068720817566
"1,70136286295131E+018",0.403310302734375,9.643844604492188,1.1683704853057861,-0.7086837291717529
"1,70136286296132E+018",0.4133212890625,9.299078941345215,1.072602391242981,-0.3447650372982025
"1,7013628629713E+018",0.42330126953125,9.710882186889648,0.9576807022094727,-0.6416460275650024
"1,70136286298131E+018",0.433312255859375,9.787496566772461,1.0630255937576294,-0.6416460275650024
"1,70136286299132E+018",0.4433232421875,9.490615844726562,0.9097966551780701,-0.6799532771110535
"1,7013628630013E+018",0.453303466796875,9.988609313964844,1.0055646896362305,-0.8523358106613159
"1,70136286301131E+018",0.463314208984375,9.222464561462402,0.9481038451194763,-0.4596867263317108
"1,70136286302133E+018",0.473324951171875,9.988609313964844,0.9289502501487732,-0.8140285611152649
"1,70136286303131E+018",0.483305419921875,9.710882186889648,0.8619126081466675,-0.727837324142456
"1,70136286304132E+018",0.49331640625,9.576807022094727,0.8427590131759644,-0.5363011956214905
"1,70136286305133E+018",0.503326904296875,10.295066833496094,0.9481038451194763,-0.9193734526634216
"1,70136286306131E+018",0.513307373046875,9.030928611755371,0.9289502501487732,-0.4118026793003082
"1,70136286307132E+018",0.523318359375,10.170568466186523,0.9002198576927185,-0.7182605266571045
"1,7013628630813E+018",0.53329833984375,9.35654067993164,0.9385270476341248,-0.49799394607543945
"1,70136286309131E+018",0.543309326171875,9.84495735168457,0.9097966551780701,-0.6320692300796509
"1,70136286310132E+018",0.5533203125,10.103530883789062,1.0534487962722778,-0.7852981686592102
"1,70136286311133E+018",0.5633310546875,9.251194953918457,0.9193734526634216,-0.6129156351089478
"1,70136286312131E+018",0.573311279296875,10.055646896362305,1.1971008777618408,-0.7565677165985107
"1,70136286313132E+018",0.583322021484375,9.184157371520996,1.1013327836990356,-0.3926490843296051
"1,7013628631413E+018",0.593302490234375,9.797073364257812,1.1492167711257935,-0.727837324142456
"1,70136286315131E+018",0.6033134765625,9.59596061706543,1.1875240802764893,-0.6799532771110535
"1,70136286316132E+018",0.613323974609375,9.634267807006836,1.1300631761550903,-0.6607996821403503
"1,7013628631713E+018",0.623304443359375,10.08437728881836,1.3694833517074585,-0.8427590131759644
"1,70136286318132E+018",0.6333154296875,8.954314231872559,1.1492167711257935,-0.5171475410461426
"1,70136286319133E+018",0.643326171875,9.816226959228516,1.4077905416488647,-0.6703764796257019
"1,70136286320131E+018",0.653306396484375,9.251194953918457,1.2641384601593018,-0.4405331015586853
"1,70136286321132E+018",0.663317138671875,9.816226959228516,1.235408067703247,-0.7852981686592102
"1,7013628632213E+018",0.673297607421875,9.758766174316406,1.2832920551300049,-0.6033388376235962
"1,70136286323131E+018",0.68330859375,9.701305389404297,1.216254472732544,-0.545877993106842
"1,70136286324132E+018",0.693319091796875,10.113107681274414,1.3215993642807007,-0.8331822156906128
"1,70136286325133E+018",0.703330078125,9.174580574035645,1.1683704853057861,-0.5363011956214905
"1,70136286326131E+018",0.713310546875,10.055646896362305,1.3311761617660522,-0.7661445140838623
"1,70136286327135E+018",0.723351806640625,9.193734169006348,1.1013327836990356,-0.3064578175544739
"1,7013628632813E+018",0.733301513671875,9.84495735168457,1.235408067703247,-0.7086837291717529
"1,70136286329131E+018",0.7433125,9.500192642211914,1.1875240802764893,-0.7086837291717529
"1,70136286330132E+018",0.7533232421875,9.892841339111328,1.158793568611145,-0.4692635238170624
"1,7013628633113E+018",0.763303466796875,10.017339706420898,1.3215993642807007,-0.7852981686592102
"1,70136286332131E+018",0.773314208984375,9.394847869873047,1.1300631761550903,-0.5746083855628967
"1,70136286333133E+018",0.7833251953125,10.132261276245117,1.2449848651885986,-0.9385270476341248
"1,70136286334131E+018",0.7933056640625,9.078812599182129,1.1492167711257935,-0.33518823981285095
"1,70136286335132E+018",0.803316162109375,10.103530883789062,1.2066776752471924,-0.5746083855628967
"1,70136286336133E+018",0.8133271484375,9.097966194152832,1.1109095811843872,-0.4213795065879822
"1,70136286337131E+018",0.8233076171875,9.950302124023438,1.1300631761550903,-0.5650315880775452
"1,70136286338132E+018",0.833318359375,9.53849983215332,1.2258312702178955,-0.5554547905921936
"1,7013628633913E+018",0.843298583984375,9.90241813659668,1.1492167711257935,-0.6607996821403503
"1,70136286340131E+018",0.853309326171875,10.046070098876953,1.3311761617660522,-0.9672574996948242
"1,70136286341132E+018",0.8633203125,9.318233489990234,1.158793568611145,-0.5746083855628967
"1,70136286342133E+018",0.873331298828125,10.08437728881836,1.3694833517074585,-0.8427590131759644
"1,70136286343131E+018",0.883311279296875,8.954314231872559,1.235408067703247,-0.4118026793003082
"1,70136286344132E+018",0.893322265625,10.017339706420898,1.2449848651885986,-0.43095630407333374
"1,70136286345133E+018",0.9033330078125,9.011775016784668,1.2641384601593018,-0.4596867263317108
"1,70136286346131E+018",0.9133134765625,9.950302124023438,1.3694833517074585,-0.5841852426528931
"1,70136286347132E+018",0.92332421875,9.615114212036133,1.3215993642807007,-0.689530074596405
"1,7013628634813E+018",0.9333046875,9.854534149169922,1.4077905416488647,-0.689530074596405
"1,70136286349132E+018",0.9433154296875,9.90241813659668,1.455674648284912,-0.9672574996948242
"1,70136286350133E+018",0.953326416015625,9.308655738830566,1.3407529592514038,-0.6033388376235962
"1,70136286351131E+018",0.963306396484375,9.931148529052734,1.4269442558288574,-0.7852981686592102
"1,70136286352132E+018",0.9733173828125,8.848969459533691,1.3215993642807007,-0.40222588181495667
"1,70136286353133E+018",0.983328369140625,10.103530883789062,1.4173674583435059,-0.5937620401382446
"1,70136286354131E+018",0.993308349609375,8.848969459533691,1.3982137441635132,-0.49799394607543945
"1,70136286355132E+018",1.0033193359375,10.113107681274414,1.50355863571167,-0.6703764796257019
"1,70136286356133E+018",1.013330078125,9.078812599182129,1.3982137441635132,-0.5650315880775452
"1,70136286357131E+018",1.023310546875,10.046070098876953,1.4460978507995605,-0.6512228846549988
"1,70136286358132E+018",1.033321533203125,9.528923034667969,1.4077905416488647,-0.5746083855628967
"1,70136286359133E+018",1.04333203125,9.41400146484375,1.3982137441635132,-0.6416460275650024
"1,70136286360131E+018",1.0533125,9.96945571899414,1.37906014919281,-0.8523358106613159
"1,70136286361132E+018",1.063323486328125,8.916007041931152,1.3694833517074585,-0.5650315880775452
"1,7013628636213E+018",1.073303466796875,10.103530883789062,1.4173674583435059,-0.47884035110473633
"1,70136286363131E+018",1.083314453125,8.724471092224121,1.3407529592514038,-0.4405331015586853
"1,70136286364133E+018",1.0933251953125,9.979032516479492,1.4269442558288574,-0.6224924325942993
"1,70136286365134E+018",1.103336181640625,8.983044624328613,1.292868971824646,-0.40222588181495667
"1,70136286366132E+018",1.11331640625,9.96945571899414,1.455674648284912,-0.5841852426528931
"1,7013628636713E+018",1.123296875,9.47146224975586,1.3407529592514038,-0.5650315880775452
"1,70136286368131E+018",1.1333076171875,9.643844604492188,1.4652514457702637,-0.5937620401382446
"1,70136286369132E+018",1.143318603515625,9.892841339111328,1.37906014919281,-0.6991068720817566
"1,7013628637013E+018",1.153298583984375,9.232041358947754,1.4652514457702637,-0.6512228846549988
"1,70136286371131E+018",1.1633095703125,9.931148529052734,1.4844050407409668,-0.7374141216278076
"1,70136286372132E+018",1.173320556640625,8.829815864562988,1.3311761617660522,-0.2968810200691223
"1,70136286373133E+018",1.183331298828125,10.160991668701172,1.4939818382263184,-0.6033388376235962
"1,70136286374131E+018",1.1933115234375,8.983044624328613,1.3215993642807007,-0.3064578175544739
"1,70136286375132E+018",1.203322265625,10.266336441040039,1.4844050407409668,-0.6607996821403503
"1,70136286376133E+018",1.213333251953125,9.117119789123535,1.3407529592514038,-0.4213795065879822
"1,70136286377131E+018",1.2233134765625,9.988609313964844,1.436521053314209,-0.6799532771110535
"1,70136286378132E+018",1.23332421875,9.500192642211914,1.3407529592514038,-0.5746083855628967
"1,70136286379131E+018",1.2433046875,9.548076629638672,1.4077905416488647,-0.6224924325942993
"1,70136286380132E+018",1.253315673828125,10.017339706420898,1.3407529592514038,-0.6512228846549988
"1,70136286381133E+018",1.263326416015625,9.394847869873047,1.4269442558288574,-0.5554547905921936
"1,70136286382131E+018",1.273306640625,10.218452453613281,1.359906554222107,-0.7469909191131592
"1,70136286383132E+018",1.2833173828125,9.02135181427002,1.3024457693099976,-0.4884171485900879
"1,70136286384133E+018",1.293328369140625,10.218452453613281,1.455674648284912,-0.5746083855628967
"1,70136286385131E+018",1.30330859375,8.916007041931152,1.2545616626739502,-0.28730419278144836
"1,70136286386132E+018",1.3133193359375,10.237606048583984,1.4844050407409668,-0.7565677165985107
"1,7013628638713E+018",1.3232998046875,9.21288776397705,1.2737152576446533,-0.3734954595565796
"1,70136286388131E+018",1.333310791015625,10.247182846069336,1.3886369466781616,-0.5937620401382446
"1,70136286389132E+018",1.3433212890625,9.35654067993164,1.1971008777618408,-0.3064578175544739
"1,70136286390133E+018",1.353332275390625,9.691728591918945,1.455674648284912,-0.6607996821403503
"1,70136286391131E+018",1.363312744140625,9.77791976928711,1.2545616626739502,-0.6033388376235962
"1,70136286392132E+018",1.373323486328125,9.509769439697266,1.292868971824646,-0.6416460275650024
"1,7013628639313E+018",1.3833037109375,10.400412559509277,1.3982137441635132,-0.6799532771110535
"1,70136286394131E+018",1.393314453125,9.165003776550293,1.292868971824646,-0.507570743560791
"1,70136286395133E+018",1.403325439453125,10.247182846069336,1.3407529592514038,-0.7469909191131592
"1,70136286396131E+018",1.4133056640625,8.925583839416504,1.2258312702178955,-0.35434186458587646
"1,70136286397132E+018",1.42331640625,10.170568466186523,1.3982137441635132,-0.5841852426528931
"1,70136286398133E+018",1.433327392578125,8.858546257019043,1.1875240802764893,-0.38307225704193115
"1,70136286399131E+018",1.443307861328125,10.333374977111816,1.3694833517074585,-0.6991068720817566
"1,70136286400132E+018",1.453318603515625,8.992621421813965,1.1779472827911377,-0.43095630407333374
"1,7013628640113E+018",1.463298828125,10.08437728881836,1.359906554222107,-0.5171475410461426
"1,70136286402131E+018",1.473309814453125,9.069235801696777,1.1492167711257935,-0.363918662071228
"1,70136286403132E+018",1.483320556640625,9.59596061706543,1.3982137441635132,-0.5841852426528931
"1,70136286404133E+018",1.49333154296875,9.66299819946289,1.1875240802764893,-0.5841852426528931
"1,70136286405131E+018",1.5033115234375,9.346963882446289,1.359906554222107,-0.6033388376235962
"1,70136286406132E+018",1.513322509765625,9.825803756713867,1.2449848651885986,-0.5937620401382446
"1,7013628640713E+018",1.523302978515625,9.366117477416992,1.3503297567367554,-0.5650315880775452
"1,70136286408131E+018",1.5333134765625,10.065223693847656,1.3024457693099976,-0.8044517636299133
"1,70136286409132E+018",1.543324462890625,8.916007041931152,1.235408067703247,-0.363918662071228
"1,7013628641013E+018",1.553304931640625,10.218452453613281,1.37906014919281,-0.7374141216278076
"1,70136286411132E+018",1.563315673828125,8.820239067077637,1.2545616626739502,-0.40222588181495667
"1,70136286412133E+018",1.573326416015625,10.314221382141113,1.4077905416488647,-0.9672574996948242
"1,70136286413131E+018",1.583306640625,8.877699851989746,1.2832920551300049,-0.5363011956214905
"1,70136286414132E+018",1.593317626953125,10.314221382141113,1.3311761617660522,-0.727837324142456
"1,70136286415133E+018",1.60332861328125,8.71489429473877,1.2449848651885986,-0.3447650372982025
"1,70136286416131E+018",1.61330859375,9.96945571899414,1.3120225667953491,-0.6703764796257019
"1,70136286417132E+018",1.623319580078125,9.117119789123535,1.139639973640442,-0.3447650372982025
"1,7013628641813E+018",1.633300048828125,10.093954086303711,1.3982137441635132,-0.6703764796257019
"1,70136286419131E+018",1.643310791015625,9.289502143859863,1.1683704853057861,-0.6033388376235962
"1,70136286420132E+018",1.653321533203125,9.77791976928711,1.4748282432556152,-0.6703764796257019
"1,70136286421133E+018",1.663332275390625,9.222464561462402,1.1300631761550903,-0.4118026793003082
"1,70136286422131E+018",1.673312744140625,9.481039047241211,1.3886369466781616,-0.4692635238170624
"1,70136286423132E+018",1.68332373046875,9.605537414550781,1.1204863786697388,-0.5363011956214905
"1,7013628642413E+018",1.6933037109375,9.528923034667969,1.436521053314209,-0.5937620401382446
"1,70136286425132E+018",1.703314697265625,9.749189376831055,1.2258312702178955,-0.6416460275650024
"1,70136286426133E+018",1.71332568359375,9.528923034667969,1.436521053314209,-0.5363011956214905
"1,70136286427131E+018",1.7233056640625,9.653421401977539,1.1204863786697388,-0.5267243981361389
"1,70136286428132E+018",1.733316650390625,9.117119789123535,1.4748282432556152,-0.5650315880775452
"1,70136286429142E+018",1.743419189453125,9.797073364257812,1.1875240802764893,-0.727837324142456
"1,70136286430131E+018",1.753307861328125,9.232041358947754,1.436521053314209,-0.5841852426528931
"1,70136286431132E+018",1.763318603515625,10.046070098876953,1.2066776752471924,-0.7469909191131592
"1,7013628643213E+018",1.773298828125,9.260771751403809,1.4460978507995605,-0.5650315880775452
"1,70136286433131E+018",1.783309814453125,9.806650161743164,1.216254472732544,-0.689530074596405
"1,70136286434132E+018",1.79332080078125,9.059659004211426,1.3024457693099976,-0.38307225704193115
"1,7013628643513E+018",1.80330078125,9.998186111450195,1.1971008777618408,-0.6512228846549988
"1,70136286436131E+018",1.813311767578125,9.117119789123535,1.436521053314209,-0.47884035110473633
"1,70136286437132E+018",1.823322509765625,10.074800491333008,1.235408067703247,-0.9576807022094727
"1,70136286438133E+018",1.83333349609375,9.136273384094238,1.292868971824646,-0.40222588181495667
"1,70136286439131E+018",1.843313720703125,9.921571731567383,1.2641384601593018,-0.8044517636299133
"1,70136286440132E+018",1.853324462890625,9.040505409240723,1.3886369466781616,-0.47884035110473633
"1,70136286441143E+018",1.863427001953125,9.931148529052734,1.216254472732544,-0.7182605266571045
"1,70136286442132E+018",1.87331591796875,9.136273384094238,1.3503297567367554,-0.49799394607543945
"1,7013628644313E+018",1.8832958984375,10.007762908935547,1.2737152576446533,-0.7661445140838623
"1,70136286444131E+018",1.893306884765625,9.299078941345215,1.3407529592514038,-0.47884035110473633
"1,70136286445132E+018",1.90331787109375,9.768342971801758,1.2258312702178955,-0.7374141216278076
"1,70136286446133E+018",1.91332861328125,9.2033109664917,1.2832920551300049,-0.3926490843296051
"1,70136286447131E+018",1.923308837890625,9.835380554199219,1.216254472732544,-0.7469909191131592
"1,70136286448132E+018",1.933319580078125,9.193734169006348,1.3982137441635132,-0.45010992884635925
"1,7013628644913E+018",1.943300048828125,10.02691650390625,1.1013327836990356,-0.7374141216278076
"1,70136286450131E+018",1.953310791015625,9.337387084960938,1.3120225667953491,-0.4213795065879822
"1,70136286451132E+018",1.963321533203125,9.883264541625977,1.1300631761550903,-0.689530074596405
"1,7013628645213E+018",1.973302001953125,9.308655738830566,1.4077905416488647,-0.4118026793003082
"1,70136286453131E+018",1.98331298828125,9.892841339111328,1.1492167711257935,-0.7852981686592102
"1,70136286454132E+018",1.993323486328125,9.299078941345215,1.3886369466781616,-0.47884035110473633
"1,7013628645513E+018",2.003303955078125,9.90241813659668,1.158793568611145,-0.8427590131759644
"1,70136286456131E+018",2.013314697265625,9.461885452270508,1.3694833517074585,-0.45010992884635925
"1,70136286457133E+018",2.02332568359375,9.864110946655273,1.1779472827911377,-0.7565677165985107
"1,70136286458131E+018",2.033305908203125,9.490615844726562,1.436521053314209,-0.35434186458587646
"1,70136286459132E+018",2.043316650390625,9.730035781860352,1.1013327836990356,-0.6607996821403503
"1,70136286460142E+018",2.053419189453125,9.500192642211914,1.4460978507995605,-0.4405331015586853
"1,70136286461131E+018",2.06330810546875,9.84495735168457,1.0821791887283325,-0.7757213711738586
"1,70136286462132E+018",2.073318603515625,9.53849983215332,1.4269442558288574,-0.5363011956214905
"1,7013628646313E+018",2.083299072265625,9.730035781860352,1.1013327836990356,-0.6703764796257019
"1,70136286464131E+018",2.09331005859375,9.576807022094727,1.4460978507995605,-0.4118026793003082
"1,70136286465132E+018",2.10332080078125,9.768342971801758,1.072602391242981,-0.545877993106842
"1,70136286466133E+018",2.11333154296875,9.768342971801758,1.4748282432556152,-0.545877993106842
"1,70136286467131E+018",2.123311767578125,9.701305389404297,1.1300631761550903,-0.6512228846549988
"1,70136286468132E+018",2.13332275390625,9.567230224609375,1.4173674583435059,-0.47884035110473633
"1,7013628646913E+018",2.143302978515625,9.519346237182617,1.1875240802764893,-0.6129156351089478
"1,70136286470131E+018",2.153313720703125,9.605537414550781,1.4939818382263184,-0.7086837291717529
"1,70136286471132E+018",2.16332470703125,9.433155059814453,1.235408067703247,-0.6512228846549988
"1,70136286472131E+018",2.17330517578125,9.576807022094727,1.4077905416488647,-0.7948749661445618
"1,70136286473132E+018",2.183315673828125,9.490615844726562,1.1875240802764893,-0.545877993106842
"1,70136286474133E+018",2.19332666015625,9.701305389404297,1.3407529592514038,-0.7086837291717529
"1,70136286475131E+018",2.20330712890625,9.394847869873047,1.2641384601593018,-0.4118026793003082
"1,70136286476132E+018",2.21331787109375,9.509769439697266,1.1875240802764893,-0.9768342971801758
"1,7013628647713E+018",2.223298095703125,9.433155059814453,1.3982137441635132,-0.40222588181495667
"1,70136286478131E+018",2.233308837890625,9.557653427124023,1.1492167711257935,-0.9864110946655273
"1,70136286479132E+018",2.24331982421875,9.41400146484375,1.359906554222107,-0.40222588181495667
"1,70136286480133E+018",2.25333056640625,9.528923034667969,1.0534487962722778,-0.727837324142456
"1,70136286481131E+018",2.263310791015625,9.605537414550781,1.3694833517074585,-0.23942017555236816
"1,70136286482132E+018",2.27332177734375,9.605537414550781,0.9959878921508789,-0.6129156351089478
"1,7013628648313E+018",2.28330224609375,9.720458984375,1.3407529592514038,-0.6129156351089478
"1,70136286484131E+018",2.29331298828125,9.605537414550781,1.072602391242981,-0.5650315880775452
"1,70136286485132E+018",2.30332373046875,9.576807022094727,1.2545616626739502,-0.5171475410461426
"1,7013628648613E+018",2.313303955078125,9.509769439697266,1.1492167711257935,-0.5937620401382446
"1,70136286487132E+018",2.32331494140625,9.586383819580078,1.072602391242981,-0.7948749661445618
"1,70136286488133E+018",2.333325927734375,9.643844604492188,1.1779472827911377,-0.363918662071228
"1,70136286489131E+018",2.343305908203125,9.825803756713867,1.0055646896362305,-0.8906430602073669
"1,70136286490132E+018",2.35331689453125,9.490615844726562,1.1779472827911377,-0.181959331035614
"1,7013628649113E+018",2.36329736328125,9.672574996948242,0.9097966551780701,-0.9002198576927185
"1,70136286492134E+018",2.373338623046875,9.567230224609375,1.072602391242981,-0.28730419278144836
"1,70136286493132E+018",2.38331884765625,9.710882186889648,0.9768342971801758,-0.7469909191131592
"1,70136286494133E+018",2.39332958984375,9.557653427124023,1.0055646896362305,-0.5267243981361389
"1,70136286495131E+018",2.40331005859375,9.787496566772461,1.091755986213684,-0.40222588181495667
"1,70136286496132E+018",2.41332080078125,9.720458984375,0.7661445140838623,-0.727837324142456
"1,7013628649713E+018",2.423301025390625,9.768342971801758,1.0821791887283325,-0.2777273952960968
"1,70136286498131E+018",2.43331201171875,9.701305389404297,0.7374141216278076,-0.7086837291717529
"1,70136286499132E+018",2.443322998046875,9.864110946655273,1.015141487121582,-0.31603461503982544
"1,7013628650013E+018",2.453302978515625,9.682151794433594,0.8236053586006165,-0.6320692300796509
"1,70136286501131E+018",2.46331396484375,9.576807022094727,0.9864110946655273,-0.3734954595565796
"1,70136286502132E+018",2.47332470703125,9.825803756713867,0.9097966551780701,-0.47884035110473633
"1,70136286503131E+018",2.48330517578125,9.66299819946289,0.7469909191131592,-0.6512228846549988
"1,70136286504132E+018",2.49331591796875,9.758766174316406,0.9481038451194763,-0.38307225704193115
"1,7013628650513E+018",2.503296142578125,9.66299819946289,0.7086837291717529,-0.7469909191131592
"1,70136286506131E+018",2.51330712890625,9.634267807006836,0.9289502501487732,-0.2585737705230713
"1,70136286507132E+018",2.523318115234375,9.557653427124023,0.7086837291717529,-0.689530074596405
"1,70136286508133E+018",2.53332861328125,9.442731857299805,0.8810662031173706,-0.6607996821403503
"1,70136286509131E+018",2.54330908203125,9.548076629638672,1.091755986213684,-0.4213795065879822
"1,70136286510132E+018",2.55331982421875,9.490615844726562,1.0055646896362305,-0.8619126081466675
"1,7013628651113E+018",2.563300048828125,9.615114212036133,1.3215993642807007,-0.2585737705230713
"1,70136286512131E+018",2.57331103515625,9.500192642211914,1.1109095811843872,-0.689530074596405
"1,70136286513132E+018",2.58332177734375,9.423578262329102,1.216254472732544,-0.45010992884635925
"1,70136286514133E+018",2.593332763671875,9.53849983215332,1.0534487962722778,-0.6129156351089478
"1,70136286515131E+018",2.60331298828125,9.53849983215332,0.9193734526634216,-0.8331822156906128
"1,70136286516132E+018",2.61332373046875,9.634267807006836,1.1204863786697388,-0.2777273952960968
"1,7013628651713E+018",2.62330419921875,9.557653427124023,0.6991068720817566,-0.7948749661445618
"1,70136286518131E+018",2.633315185546875,9.222464561462402,1.0342950820922852,-0.40222588181495667
"1,70136286519133E+018",2.643325927734375,9.481039047241211,0.871489405632019,-0.7182605266571045
"1,70136286520131E+018",2.65330615234375,9.327810287475586,0.9097966551780701,-0.8236053586006165
"1,70136286521132E+018",2.66331689453125,9.691728591918945,1.1013327836990356,-0.4596867263317108
"1,70136286522133E+018",2.673327880859375,9.461885452270508,0.9864110946655273,-0.8810662031173706
"1,70136286523131E+018",2.68330810546875,9.548076629638672,1.2737152576446533,-0.5363011956214905
"1,70136286524132E+018",2.69331884765625,9.41400146484375,1.0438719987869263,-0.8906430602073669
"1,7013628652513E+018",2.70329931640625,9.404424667358398,1.0821791887283325,-0.871489405632019
"1,70136286526131E+018",2.713310302734375,9.442731857299805,1.139639973640442,-0.363918662071228
"1,70136286527132E+018",2.72332080078125,9.394847869873047,0.9097966551780701,-0.8140285611152649
"1,7013628652813E+018",2.73330126953125,9.299078941345215,1.1204863786697388,-0.4596867263317108
"1,70136286529131E+018",2.74331201171875,9.490615844726562,0.9481038451194763,-0.7852981686592102
"1,70136286530132E+018",2.753322998046875,9.289502143859863,1.0342950820922852,-0.6416460275650024
"1,7013628653113E+018",2.76330322265625,9.59596061706543,1.0821791887283325,-0.5937620401382446
"1,70136286532131E+018",2.77331396484375,9.299078941345215,1.015141487121582,-0.7661445140838623
"1,70136286533133E+018",2.783324951171875,9.442731857299805,1.3024457693099976,-0.43095630407333374
"1,70136286534134E+018",2.793335693359375,9.346963882446289,1.1013327836990356,-0.7757213711738586
"1,70136286535132E+018",2.80331591796875,9.260771751403809,1.1875240802764893,-0.7182605266571045
"1,70136286536133E+018",2.813326904296875,9.375694274902344,1.2449848651885986,-0.363918662071228
"1,70136286537131E+018",2.823307373046875,9.346963882446289,1.091755986213684,-0.6799532771110535
"1,70136286538132E+018",2.83331787109375,9.308655738830566,1.2449848651885986,-0.2968810200691223
"1,7013628653913E+018",2.84329833984375,9.528923034667969,1.1109095811843872,-0.8044517636299133
"1,70136286540131E+018",2.85330908203125,9.337387084960938,1.1013327836990356,-0.6033388376235962
"1,70136286541132E+018",2.863320068359375,9.548076629638672,1.2449848651885986,-0.5650315880775452
"1,7013628654213E+018",2.87330029296875,9.366117477416992,1.072602391242981,-0.727837324142456
"1,70136286543131E+018",2.88331103515625,9.567230224609375,1.2066776752471924,-0.5171475410461426
"1,70136286544132E+018",2.893322021484375,9.452308654785156,1.2066776752471924,-0.727837324142456
"1,7013628654513E+018",2.903302490234375,9.442731857299805,1.139639973640442,-0.7948749661445618
"1,70136286546134E+018",2.91334375,9.586383819580078,1.2545616626739502,-0.28730419278144836
"1,70136286547132E+018",2.923323974609375,9.519346237182617,1.091755986213684,-0.7757213711738586
"1,7013628654813E+018",2.93330419921875,9.509769439697266,1.235408067703247,-0.43095630407333374
"1,70136286549132E+018",2.943315185546875,9.586383819580078,1.1971008777618408,-0.8427590131759644
"1,70136286550133E+018",2.953325927734375,9.519346237182617,1.1492167711257935,-0.6991068720817566
"1,70136286551131E+018",2.96330615234375,9.672574996948242,1.2258312702178955,-0.4596867263317108
"1,70136286552132E+018",2.973317138671875,9.710882186889648,1.139639973640442,-0.7086837291717529
"1,70136286553133E+018",2.983327880859375,9.567230224609375,1.091755986213684,-0.5171475410461426
"1,70136286554131E+018",2.99330810546875,9.730035781860352,1.1779472827911377,-0.6224924325942993
"1,70136286555132E+018",3.003319091796875,9.615114212036133,1.1492167711257935,-0.7565677165985107
"1,70136286556133E+018",3.013329833984375,9.77791976928711,1.2832920551300049,-0.38307225704193115
"1,70136286557131E+018",3.02331005859375,9.605537414550781,1.2737152576446533,-0.9002198576927185
"1,70136286558132E+018",3.033321044921875,9.452308654785156,1.3215993642807007,-0.6607996821403503
"1,70136286559133E+018",3.043331787109375,9.691728591918945,1.3120225667953491,-0.5554547905921936
"1,70136286560131E+018",3.053312255859375,9.710882186889648,1.1109095811843872,-0.7757213711738586
"1,70136286561132E+018",3.0633232421875,9.682151794433594,1.3024457693099976,-0.4213795065879822
"1,7013628656213E+018",3.07330322265625,9.758766174316406,1.2832920551300049,-0.7086837291717529
"1,70136286563131E+018",3.083314208984375,9.528923034667969,1.1875240802764893,-0.5841852426528931
"1,70136286564133E+018",3.093324951171875,9.854534149169922,1.3024457693099976,-0.5937620401382446
"1,70136286565134E+018",3.1033359375,9.720458984375,1.1204863786697388,-0.7565677165985107
"1,70136286566132E+018",3.113316162109375,9.758766174316406,1.292868971824646,-0.5841852426528931
"1,70136286567133E+018",3.123326904296875,9.797073364257812,1.3311761617660522,-0.7086837291717529
"1,70136286568131E+018",3.133307373046875,9.672574996948242,1.1492167711257935,-0.727837324142456
"1,70136286569132E+018",3.143318115234375,9.768342971801758,1.2545616626739502,-0.363918662071228
"1,70136286570133E+018",3.153328857421875,9.758766174316406,1.235408067703247,-0.871489405632019
"1,70136286571131E+018",3.163309326171875,9.739612579345703,1.2641384601593018,-0.6512228846549988
"1,70136286572132E+018",3.1733203125,9.90241813659668,1.3694833517074585,-0.507570743560791
"1,70136286573133E+018",3.183330810546875,9.643844604492188,1.1875240802764893,-0.7757213711738586
"1,70136286574131E+018",3.193311279296875,9.787496566772461,1.3120225667953491,-0.5363011956214905
"1,70136286575132E+018",3.203322021484375,9.979032516479492,1.3024457693099976,-0.7469909191131592
"1,70136286576133E+018",3.2133330078125,9.90241813659668,1.3024457693099976,-0.6991068720817566
"1,70136286577131E+018",3.223313232421875,9.931148529052734,1.3407529592514038,-0.47884035110473633
"1,70136286578132E+018",3.233323974609375,9.911994934082031,1.3215993642807007,-0.9193734526634216
"1,7013628657913E+018",3.243304443359375,9.749189376831055,1.235408067703247,-0.4213795065879822
"1,70136286580132E+018",3.2533154296875,9.979032516479492,1.3215993642807007,-0.6607996821403503
"1,70136286581133E+018",3.263325927734375,9.720458984375,1.2066776752471924,-0.6512228846549988
"1,70136286582131E+018",3.273306396484375,9.806650161743164,1.292868971824646,-0.363918662071228
"1,70136286583132E+018",3.283317138671875,9.643844604492188,1.2737152576446533,-0.6512228846549988
"1,7013628658413E+018",3.29329736328125,9.710882186889648,1.2545616626739502,-0.7182605266571045
"1,70136286585131E+018",3.303308349609375,9.864110946655273,1.3982137441635132,-0.38307225704193115
"1,70136286586132E+018",3.313319091796875,9.873687744140625,1.072602391242981,-0.5937620401382446
"1,7013628658713E+018",3.323299560546875,9.66299819946289,1.3407529592514038,-0.24899697303771973
"1,70136286588131E+018",3.333310302734375,9.959878921508789,1.3120225667953491,-0.6224924325942993
"1,70136286589132E+018",3.343321044921875,9.634267807006836,1.158793568611145,-0.507570743560791
"1,7013628659013E+018",3.353301513671875,9.911994934082031,1.3886369466781616,-0.4213795065879822
"1,70136286591131E+018",3.3633125,9.730035781860352,1.1683704853057861,-0.6129156351089478
"1,70136286592132E+018",3.373322998046875,9.519346237182617,1.3407529592514038,-0.5267243981361389
"1,7013628659313E+018",3.383303466796875,9.691728591918945,1.292868971824646,-0.5650315880775452
"1,70136286594131E+018",3.393314208984375,9.710882186889648,1.1683704853057861,-0.6416460275650024
"1,70136286595133E+018",3.4033251953125,9.653421401977539,1.292868971824646,-0.3256114423274994
"1,70136286596131E+018",3.413305419921875,9.634267807006836,1.3407529592514038,-0.6703764796257019
"1,70136286597132E+018",3.423316162109375,9.528923034667969,1.2641384601593018,-0.5267243981361389
"1,70136286598133E+018",3.4333271484375,9.682151794433594,1.37906014919281,-0.4405331015586853
"1,70136286599131E+018",3.443307373046875,9.557653427124023,1.235408067703247,-0.7469909191131592
"1,70136286600132E+018",3.453318115234375,9.567230224609375,1.3215993642807007,-0.4884171485900879
"1,7013628660113E+018",3.463298583984375,9.53849983215332,1.359906554222107,-0.507570743560791
"1,70136286602131E+018",3.473309326171875,9.308655738830566,1.2545616626739502,-0.6512228846549988
"1,70136286603132E+018",3.4833203125,9.251194953918457,1.3311761617660522,-0.31603461503982544
"1,70136286604133E+018",3.4933310546875,9.548076629638672,1.3120225667953491,-0.7469909191131592
"1,70136286605131E+018",3.503311279296875,9.423578262329102,1.2449848651885986,-0.5841852426528931
"1,70136286606132E+018",3.513322265625,9.557653427124023,1.3024457693099976,-0.4596867263317108
"1,7013628660713E+018",3.523302490234375,9.385271072387695,1.2066776752471924,-0.6129156351089478
"1,70136286608131E+018",3.533313232421875,9.59596061706543,1.2737152576446533,-0.507570743560791
"1,70136286609132E+018",3.54332421875,9.634267807006836,1.2545616626739502,-0.6512228846549988
"1,7013628661013E+018",3.5533046875,9.500192642211914,1.1300631761550903,-0.6799532771110535
"1,70136286611132E+018",3.563315185546875,9.41400146484375,1.3215993642807007,-0.31603461503982544
"1,70136286612133E+018",3.573326171875,9.528923034667969,1.2641384601593018,-0.7182605266571045
"1,70136286613131E+018",3.583306396484375,9.366117477416992,1.216254472732544,-0.6129156351089478
"1,70136286614132E+018",3.5933173828125,9.66299819946289,1.3886369466781616,-0.363918662071228
"1,70136286615133E+018",3.603327880859375,9.366117477416992,1.1971008777618408,-0.7182605266571045
"1,70136286616131E+018",3.613308349609375,9.519346237182617,1.2832920551300049,-0.43095630407333374
"1,70136286617132E+018",3.6233193359375,9.672574996948242,1.1971008777618408,-0.6129156351089478
"1,70136286618133E+018",3.633330078125,9.528923034667969,1.235408067703247,-0.5650315880775452
"1,70136286619131E+018",3.643310302734375,9.682151794433594,1.3215993642807007,-0.45010992884635925
"1,70136286620132E+018",3.6533212890625,9.615114212036133,1.2449848651885986,-0.5841852426528931
"1,7013628662113E+018",3.663301513671875,9.461885452270508,1.1971008777618408,-0.5937620401382446
"1,70136286622131E+018",3.6733125,9.643844604492188,1.216254472732544,-0.5841852426528931
"1,70136286623132E+018",3.6833232421875,9.490615844726562,1.2449848651885986,-0.727837324142456
"1,7013628662413E+018",3.693303466796875,9.528923034667969,1.2258312702178955,-0.4405331015586853
"1,70136286625131E+018",3.703314453125,9.548076629638672,1.4173674583435059,-0.6607996821403503
"1,70136286626133E+018",3.7133251953125,9.653421401977539,1.1492167711257935,-0.7565677165985107
"1,70136286627131E+018",3.723305419921875,9.701305389404297,1.3120225667953491,-0.47884035110473633
"1,70136286628132E+018",3.73331640625,9.701305389404297,1.2737152576446533,-0.8331822156906128
"1,7013628662913E+018",3.743296875,9.77791976928711,1.2449848651885986,-0.5554547905921936
"1,70136286630131E+018",3.753307373046875,9.940725326538086,1.3024457693099976,-0.5363011956214905
"1,70136286631132E+018",3.763318359375,9.586383819580078,1.091755986213684,-0.6607996821403503
"1,70136286632133E+018",3.7733291015625,9.53849983215332,1.3311761617660522,-0.4405331015586853
"1,70136286633131E+018",3.7833095703125,9.806650161743164,1.2737152576446533,-0.7086837291717529
"1,70136286634132E+018",3.7933203125,9.500192642211914,1.158793568611145,-0.6224924325942993
"1,7013628663513E+018",3.803300537109375,9.816226959228516,1.3311761617660522,-0.5554547905921936
"1,70136286636131E+018",3.8133115234375,9.787496566772461,1.1109095811843872,-0.6799532771110535
"1,70136286637132E+018",3.823322265625,9.90241813659668,1.139639973640442,-0.6703764796257019
"1,7013628663813E+018",3.833302490234375,9.921571731567383,1.2258312702178955,-0.6512228846549988
"1,70136286639131E+018",3.8433134765625,9.691728591918945,1.216254472732544,-0.6512228846549988
"1,70136286640132E+018",3.85332421875,9.682151794433594,1.2066776752471924,-0.6129156351089478
"1,7013628664113E+018",3.863304443359375,9.66299819946289,1.2737152576446533,-0.7852981686592102
"1,70136286642132E+018",3.8733154296875,9.519346237182617,1.292868971824646,-0.7374141216278076
"1,70136286643133E+018",3.883326171875,9.500192642211914,1.37906014919281,-0.35434186458587646
"1,70136286644131E+018",3.893306640625,9.53849983215332,1.3503297567367554,-0.7852981686592102
"1,70136286645132E+018",3.9033173828125,9.490615844726562,1.2449848651885986,-0.689530074596405
"1,70136286646133E+018",3.913328125,9.787496566772461,1.4077905416488647,-0.5746083855628967
"1,70136286647131E+018",3.92330859375,9.653421401977539,1.2066776752471924,-0.8140285611152649
"1,70136286648132E+018",3.9333193359375,9.730035781860352,1.2641384601593018,-0.5650315880775452
"1,70136286649133E+018",3.943330322265625,9.749189376831055,1.3024457693099976,-0.6224924325942993
"1,70136286650131E+018",3.953310546875,9.53849983215332,1.1875240802764893,-0.7374141216278076
"1,70136286651132E+018",3.9633212890625,9.653421401977539,1.3215993642807007,-0.6799532771110535
"1,70136286652133E+018",3.973332275390625,9.519346237182617,1.2641384601593018,-0.8810662031173706
"1,70136286653131E+018",3.9833125,9.327810287475586,1.3215993642807007,-0.7757213711738586
"1,70136286654132E+018",3.9933232421875,9.672574996948242,1.3407529592514038,-0.7661445140838623
"1,7013628665513E+018",4.0033037109375,9.643844604492188,1.1875240802764893,-0.9289502501487732
"1,70136286656131E+018",4.013314453125,9.84495735168457,1.2545616626739502,-0.7374141216278076
"1,70136286657133E+018",4.0233251953125,9.825803756713867,1.235408067703247,-0.8427590131759644
"1,70136286658131E+018",4.0333056640625,9.768342971801758,1.1683704853057861,-0.8427590131759644
"1,70136286659132E+018",4.04331640625,9.624691009521484,1.2066776752471924,-0.6512228846549988
"1,70136286660133E+018",4.053327392578125,9.66299819946289,1.3694833517074585,-0.8906430602073669
"1,70136286661131E+018",4.0633076171875,9.490615844726562,1.2449848651885986,-0.9289502501487732
"1,70136286662132E+018",4.073318359375,9.461885452270508,1.3215993642807007,-0.507570743560791
"1,70136286663133E+018",4.083329345703125,9.509769439697266,1.216254472732544,-0.7565677165985107
"1,70136286664134E+018",4.093340087890625,9.567230224609375,1.2066776752471924,-0.7374141216278076
"1,70136286665132E+018",4.1033203125,9.84495735168457,1.3024457693099976,-0.6224924325942993
"1,70136286666133E+018",4.113331298828125,9.768342971801758,1.015141487121582,-0.689530074596405
"1,70136286667131E+018",4.1233115234375,9.749189376831055,1.2641384601593018,-0.6224924325942993
"1,70136286668132E+018",4.133322509765625,9.672574996948242,1.2641384601593018,-0.6320692300796509
"1,70136286669133E+018",4.1433330078125,9.442731857299805,1.1492167711257935,-0.7469909191131592
"1,70136286670131E+018",4.1533134765625,9.567230224609375,1.2449848651885986,-0.6033388376235962
"1,70136286671132E+018",4.163324462890625,9.605537414550781,1.216254472732544,-0.8619126081466675
"1,7013628667213E+018",4.1733046875,9.548076629638672,1.158793568611145,-0.7565677165985107
"1,70136286673132E+018",4.1833154296875,9.624691009521484,1.2258312702178955,-0.6320692300796509
"1,70136286674133E+018",4.193326416015625,9.758766174316406,1.2545616626739502,-0.8619126081466675
"1,70136286675131E+018",4.203306640625,9.682151794433594,1.1204863786697388,-0.6991068720817566
"1,70136286676132E+018",4.2133173828125,9.720458984375,1.2641384601593018,-0.6703764796257019
"1,70136286677133E+018",4.223328369140625,9.720458984375,1.139639973640442,-0.727837324142456
"1,70136286678134E+018",4.233339111328125,9.481039047241211,1.2545616626739502,-0.7661445140838623
"1,70136286679132E+018",4.243319580078125,9.672574996948242,1.3407529592514038,-0.8810662031173706
"1,70136286680133E+018",4.253330322265625,9.41400146484375,1.1109095811843872,-0.871489405632019
"1,70136286681131E+018",4.263310546875,9.433155059814453,1.3120225667953491,-0.689530074596405
"1,70136286682132E+018",4.273321533203125,9.452308654785156,1.292868971824646,-0.7565677165985107
"1,70136286683133E+018",4.283332275390625,9.528923034667969,1.1779472827911377,-0.6320692300796509
"1,70136286684131E+018",4.2933125,9.624691009521484,1.2258312702178955,-0.4405331015586853
"1,70136286685132E+018",4.303323486328125,9.567230224609375,1.1300631761550903,-0.7374141216278076
"1,70136286686133E+018",4.313334228515625,9.509769439697266,1.139639973640442,-0.6416460275650024
"1,70136286687132E+018",4.323314697265625,9.423578262329102,1.3120225667953491,-0.5554547905921936
"1,70136286688133E+018",4.3333251953125,9.375694274902344,1.1779472827911377,-0.7757213711738586
"1,70136286689131E+018",4.3433056640625,9.35654067993164,1.1683704853057861,-0.7852981686592102
"1,70136286690132E+018",4.353316650390625,9.41400146484375,1.3024457693099976,-0.5746083855628967
"1,70136286691133E+018",4.363327392578125,9.47146224975586,1.1013327836990356,-0.7374141216278076
"1,70136286692131E+018",4.3733076171875,9.41400146484375,1.216254472732544,-0.3926490843296051
"1,70136286693132E+018",4.383318603515625,9.720458984375,1.2066776752471924,-0.7086837291717529
"1,70136286694133E+018",4.393329345703125,9.47146224975586,1.072602391242981,-0.6512228846549988
"1,70136286695131E+018",4.4033095703125,9.509769439697266,1.2641384601593018,-0.6320692300796509
"1,70136286696132E+018",4.413320556640625,9.528923034667969,1.1683704853057861,-0.8427590131759644
"1,7013628669713E+018",4.42330078125,9.481039047241211,1.158793568611145,-0.7469909191131592
"1,70136286698134E+018",4.43334228515625,9.77791976928711,1.216254472732544,-0.8331822156906128
"1,70136286699132E+018",4.443322265625,9.624691009521484,1.1204863786697388,-0.7948749661445618
"1,70136286700133E+018",4.453333251953125,9.701305389404297,1.0438719987869263,-0.689530074596405
"1,70136286701131E+018",4.463313720703125,9.519346237182617,1.1779472827911377,-0.4213795065879822
"1,70136286702132E+018",4.473324462890625,9.624691009521484,1.0534487962722778,-0.7661445140838623
"1,70136286703131E+018",4.4833046875,9.672574996948242,1.091755986213684,-0.7182605266571045
"1,70136286704132E+018",4.493315673828125,9.59596061706543,1.158793568611145,-0.7661445140838623
"1,70136286705133E+018",4.503326416015625,9.375694274902344,1.091755986213684,-0.6799532771110535
"1,70136286706131E+018",4.513306884765625,9.615114212036133,1.2641384601593018,-0.6129156351089478
"1,70136286707132E+018",4.5233173828125,9.59596061706543,1.1875240802764893,-0.8427590131759644
"1,70136286708133E+018",4.533328369140625,9.653421401977539,1.1492167711257935,-0.8140285611152649
"1,70136286709131E+018",4.543308837890625,9.643844604492188,1.2258312702178955,-0.4884171485900879
"1,70136286710132E+018",4.553319580078125,9.47146224975586,1.091755986213684,-0.8044517636299133
"1,70136286711133E+018",4.563330322265625,9.47146224975586,1.1779472827911377,-0.6129156351089478
"1,70136286712131E+018",4.573310791015625,9.768342971801758,1.1013327836990356,-0.9768342971801758
"1,70136286713132E+018",4.583321533203125,9.423578262329102,1.072602391242981,-0.7852981686592102
"1,70136286714133E+018",4.59333251953125,9.576807022094727,1.1013327836990356,-0.6416460275650024
"1,70136286715131E+018",4.603312744140625,9.605537414550781,1.1779472827911377,-0.6991068720817566
"1,70136286716132E+018",4.613323486328125,9.586383819580078,0.9768342971801758,-0.8044517636299133
"1,7013628671713E+018",4.623303955078125,9.605537414550781,1.158793568611145,-0.7565677165985107
"1,70136286718131E+018",4.633314453125,9.289502143859863,1.0247182846069336,-0.7374141216278076
"1,70136286719133E+018",4.643325439453125,9.481039047241211,1.158793568611145,-0.6991068720817566
"1,70136286720131E+018",4.653305908203125,9.509769439697266,1.216254472732544,-0.9385270476341248
"1,70136286721132E+018",4.663316650390625,9.509769439697266,1.072602391242981,-0.9289502501487732
"1,70136286722133E+018",4.67332763671875,9.672574996948242,1.1875240802764893,-0.6129156351089478
"1,70136286723131E+018",4.683307861328125,9.433155059814453,1.015141487121582,-0.7086837291717529
"1,70136286724132E+018",4.693318603515625,9.701305389404297,1.1971008777618408,-0.5267243981361389
"1,70136286725133E+018",4.70332958984375,9.653421401977539,1.2258312702178955,-0.8331822156906128
"1,70136286726131E+018",4.713309814453125,9.490615844726562,1.0534487962722778,-0.8427590131759644
"1,70136286727132E+018",4.723320556640625,9.548076629638672,1.1683704853057861,-0.7374141216278076
"1,7013628672813E+018",4.733301025390625,9.433155059814453,0.9481038451194763,-0.689530074596405
"1,70136286729131E+018",4.743311767578125,9.490615844726562,1.2066776752471924,-0.5363011956214905
"1,70136286730132E+018",4.753322509765625,9.442731857299805,1.2449848651885986,-0.8044517636299133
"1,70136286731133E+018",4.76333349609375,9.299078941345215,1.139639973640442,-0.8906430602073669
"1,70136286732131E+018",4.773313720703125,9.749189376831055,1.1875240802764893,-0.6033388376235962
"1,70136286733133E+018",4.78332470703125,9.366117477416992,0.9002198576927185,-0.7469909191131592
"1,7013628673413E+018",4.793304931640625,9.548076629638672,1.2258312702178955,-0.5267243981361389
"1,70136286735132E+018",4.803315673828125,9.47146224975586,1.1204863786697388,-0.8044517636299133
"1,70136286736133E+018",4.81332666015625,9.481039047241211,1.1779472827911377,-0.7086837291717529
"1,70136286737131E+018",4.823306640625,9.59596061706543,1.0438719987869263,-0.6033388376235962
"1,70136286738132E+018",4.833317626953125,9.528923034667969,0.9481038451194763,-0.6607996821403503
"1,70136286739133E+018",4.84332861328125,9.605537414550781,1.2258312702178955,-0.3064578175544739
"1,70136286740134E+018",4.85333935546875,9.481039047241211,0.9959878921508789,-0.7469909191131592
"1,70136286741132E+018",4.86331982421875,9.461885452270508,1.2066776752471924,-0.5171475410461426
"1,7013628674213E+018",4.873300048828125,9.509769439697266,1.0055646896362305,-0.7661445140838623
"1,70136286743131E+018",4.883310791015625,9.375694274902344,1.0630255937576294,-0.6033388376235962
"1,70136286744132E+018",4.89332177734375,9.691728591918945,1.1779472827911377,-0.45010992884635925
"1,70136286745133E+018",4.90333251953125,9.433155059814453,1.0055646896362305,-0.7757213711738586
"1,70136286746131E+018",4.913312744140625,9.911994934082031,1.1013327836990356,-0.3734954595565796
"1,70136286747132E+018",4.92332373046875,9.308655738830566,0.8427590131759644,-0.6607996821403503
"1,70136286748133E+018",4.93333447265625,9.576807022094727,1.1492167711257935,-0.4596867263317108
"1,70136286749132E+018",4.943314697265625,9.442731857299805,0.9002198576927185,-0.5746083855628967
"1,70136286750133E+018",4.95332568359375,9.624691009521484,1.1109095811843872,-0.545877993106842
"1,70136286751131E+018",4.963305908203125,9.624691009521484,1.0247182846069336,-0.5363011956214905
"1,70136286752132E+018",4.97331689453125,9.53849983215332,0.8906430602073669,-0.7182605266571045
"1,70136286753133E+018",4.983327392578125,9.787496566772461,1.1204863786697388,-0.4213795065879822
"1,70136286754131E+018",4.993307861328125,9.366117477416992,0.9193734526634216,-0.6224924325942993
"1,70136286755132E+018",5.00331884765625,9.47146224975586,1.235408067703247,-0.4405331015586853
"1,70136286756133E+018",5.01332958984375,9.318233489990234,0.9002198576927185,-0.7565677165985107
"1,70136286757131E+018",5.023309814453125,9.643844604492188,1.1779472827911377,-0.40222588181495667
"1,70136286758132E+018",5.03332080078125,9.299078941345215,0.8044517636299133,-0.5554547905921936
"1,7013628675913E+018",5.043301025390625,9.586383819580078,1.1779472827911377,-0.5554547905921936
"1,70136286760131E+018",5.053311767578125,9.433155059814453,0.9289502501487732,-0.5746083855628967
"1,70136286761132E+018",5.063322509765625,9.758766174316406,1.0821791887283325,-0.8140285611152649
"1,7013628676213E+018",5.073302978515625,9.481039047241211,0.9959878921508789,-0.6607996821403503
"1,70136286763131E+018",5.08331396484375,9.682151794433594,0.9864110946655273,-0.9481038451194763
"1,70136286764132E+018",5.09332470703125,9.500192642211914,1.1300631761550903,-0.5554547905921936
"1,70136286765131E+018",5.103304931640625,9.548076629638672,0.8810662031173706,-0.9672574996948242
"1,70136286766132E+018",5.11331591796875,9.461885452270508,1.2066776752471924,-0.5650315880775452
"1,70136286767133E+018",5.12332666015625,9.385271072387695,0.9289502501487732,-0.8427590131759644
"1,70136286768131E+018",5.133306884765625,9.519346237182617,1.1109095811843872,-0.5746083855628967
"1,70136286769132E+018",5.14331787109375,9.385271072387695,0.7757213711738586,-0.6991068720817566
"1,70136286770133E+018",5.15332861328125,9.442731857299805,1.1492167711257935,-0.6991068720817566
"1,70136286771131E+018",5.16330908203125,9.308655738830566,0.8140285611152649,-0.7565677165985107
"1,70136286772132E+018",5.173319580078125,9.672574996948242,1.1300631761550903,-0.9289502501487732
"1,7013628677313E+018",5.183300048828125,9.59596061706543,0.9768342971801758,-0.9481038451194763
"1,70136286774131E+018",5.19331103515625,9.730035781860352,1.0821791887283325,-0.9385270476341248
"1,70136286775132E+018",5.20332177734375,9.41400146484375,0.9959878921508789,-0.8044517636299133
"1,70136286776133E+018",5.21333251953125,9.567230224609375,0.8810662031173706,-1.0438719987869263
"1,70136286777131E+018",5.22331298828125,9.557653427124023,1.0247182846069336,-0.5746083855628967
"1,70136286778132E+018",5.23332373046875,9.59596061706543,0.8427590131759644,-0.6512228846549988
"1,70136286779133E+018",5.243334716796875,9.730035781860352,1.1204863786697388,-0.47884035110473633
"1,70136286780132E+018",5.253314697265625,9.318233489990234,0.8810662031173706,-0.6224924325942993
"1,70136286781133E+018",5.26332568359375,9.53849983215332,1.216254472732544,-0.6991068720817566
"1,70136286782131E+018",5.27330615234375,9.366117477416992,0.8906430602073669,-0.7757213711738586
"1,70136286783132E+018",5.28331689453125,9.59596061706543,1.1779472827911377,-0.689530074596405
"1,70136286784133E+018",5.29332763671875,9.605537414550781,0.8906430602073669,-0.9002198576927185
"1,70136286785131E+018",5.30330810546875,9.461885452270508,1.2258312702178955,-0.727837324142456
"1,70136286786132E+018",5.31331884765625,9.500192642211914,0.9959878921508789,-0.8906430602073669
"1,7013628678713E+018",5.323299072265625,9.500192642211914,1.1013327836990356,-0.8906430602073669
"1,70136286788131E+018",5.33331005859375,9.47146224975586,1.0630255937576294,-0.7661445140838623
"1,70136286789132E+018",5.34332080078125,9.615114212036133,0.9959878921508789,-0.9385270476341248
"1,70136286790133E+018",5.353331787109375,9.643844604492188,1.072602391242981,-0.45010992884635925
"1,70136286791131E+018",5.363311767578125,9.366117477416992,0.9481038451194763,-0.8331822156906128
"1,70136286792132E+018",5.37332275390625,9.528923034667969,1.1971008777618408,-0.5841852426528931
"1,7013628679313E+018",5.38330322265625,9.47146224975586,0.8810662031173706,-0.7565677165985107
"1,70136286794131E+018",5.39331396484375,9.653421401977539,1.2641384601593018,-0.5267243981361389
"1,70136286795132E+018",5.40332470703125,9.653421401977539,0.7948749661445618,-0.545877993106842
"1,70136286796131E+018",5.41330517578125,9.605537414550781,1.2737152576446533,-0.5746083855628967
"1,70136286797132E+018",5.42331591796875,9.509769439697266,0.9576807022094727,-0.689530074596405
"1,70136286798133E+018",5.433326904296875,9.787496566772461,1.216254472732544,-0.7757213711738586
"1,70136286799131E+018",5.44330712890625,9.500192642211914,1.0342950820922852,-0.8523358106613159
"1,70136286800132E+018",5.45331787109375,9.672574996948242,1.1779472827911377,-0.9672574996948242
"1,7013628680113E+018",5.46329833984375,9.576807022094727,1.1779472827911377,-0.5267243981361389
"1,70136286802131E+018",5.473308837890625,9.59596061706543,0.9768342971801758,-0.6033388376235962
"1,70136286803132E+018",5.48331982421875,9.720458984375,1.0342950820922852,-0.4405331015586853
"1,70136286804133E+018",5.49333056640625,9.653421401977539,0.9002198576927185,-0.7661445140838623
"1,70136286805131E+018",5.50331103515625,9.816226959228516,1.1683704853057861,-0.5171475410461426
"1,70136286806132E+018",5.513322021484375,9.749189376831055,0.9193734526634216,-0.689530074596405
"1,7013628680713E+018",5.52330224609375,9.548076629638672,1.3311761617660522,-0.31603461503982544
"1,70136286808131E+018",5.53331298828125,9.567230224609375,0.8810662031173706,-0.38307225704193115
"1,70136286809132E+018",5.543323974609375,9.672574996948242,1.2737152576446533,-0.3926490843296051
"1,7013628681013E+018",5.553303955078125,9.528923034667969,1.0055646896362305,-0.5171475410461426
"1,70136286811132E+018",5.56331494140625,9.758766174316406,1.3694833517074585,-0.5650315880775452
"1,70136286812133E+018",5.573325927734375,9.452308654785156,1.0438719987869263,-0.5841852426528931
"1,70136286813131E+018",5.58330615234375,9.720458984375,1.1204863786697388,-0.6991068720817566
"1,70136286814132E+018",5.59331689453125,9.337387084960938,1.015141487121582,-0.3447650372982025
"1,70136286815133E+018",5.60332763671875,9.730035781860352,1.091755986213684,-0.6416460275650024
"1,70136286816131E+018",5.61330810546875,9.835380554199219,1.015141487121582,-0.4118026793003082
"1,70136286817132E+018",5.623319091796875,9.950302124023438,1.091755986213684,-0.7182605266571045
"1,70136286818133E+018",5.63332958984375,9.691728591918945,1.1683704853057861,-0.28730419278144836
"1,70136286819131E+018",5.64331005859375,9.500192642211914,0.9959878921508789,-0.4405331015586853
"1,70136286820132E+018",5.653321044921875,9.643844604492188,1.1204863786697388,-0.2777273952960968
"1,7013628682113E+018",5.663301025390625,9.643844604492188,0.9193734526634216,-0.28730419278144836
"1,70136286822131E+018",5.67331201171875,9.710882186889648,1.2449848651885986,-0.1628057211637497
"1,70136286823132E+018",5.683322998046875,9.605537414550781,0.9576807022094727,-0.2106897532939911
"1,70136286824133E+018",5.693333740234375,9.691728591918945,1.2258312702178955,-0.06703764945268631
"1,70136286825131E+018",5.703314208984375,9.66299819946289,0.8427590131759644,-0.35434186458587646
"1,70136286826132E+018",5.71332470703125,9.749189376831055,1.2641384601593018,-0.2298433631658554
"1,70136286827131E+018",5.72330517578125,9.548076629638672,1.015141487121582,-0.3734954595565796
"1,70136286828132E+018",5.733316162109375,9.892841339111328,1.2449848651885986,-0.363918662071228
"1,70136286829133E+018",5.743326904296875,9.461885452270508,0.9959878921508789,-0.35434186458587646
"1,70136286830131E+018",5.75330712890625,9.730035781860352,1.1875240802764893,-0.3447650372982025
"1,70136286831132E+018",5.763318115234375,9.375694274902344,0.8906430602073669,-0.2968810200691223
"1,7013628683213E+018",5.77329833984375,9.998186111450195,1.158793568611145,-0.4884171485900879
"1,70136286833131E+018",5.78330908203125,9.509769439697266,0.9959878921508789,-0.15322890877723694
"1,70136286834132E+018",5.79331982421875,9.998186111450195,1.091755986213684,-0.507570743560791
"1,70136286835133E+018",5.803330810546875,9.461885452270508,0.9864110946655273,0
"1,70136286836131E+018",5.813311279296875,9.90241813659668,0.9576807022094727,-0.507570743560791
"1,70136286837132E+018",5.82332177734375,9.53849983215332,1.0342950820922852,-0.10534487664699554
"1,70136286838133E+018",5.833332763671875,10.074800491333008,1.0534487962722778,-0.545877993106842
"1,70136286839131E+018",5.843313232421875,9.873687744140625,0.9385270476341248,-0.13407529890537262
"1,70136286840132E+018",5.853323974609375,9.806650161743164,0.8140285611152649,-0.28730419278144836
"1,7013628684113E+018",5.86330419921875,9.816226959228516,1.0342950820922852,-0.13407529890537262
"1,70136286842132E+018",5.873315185546875,9.816226959228516,0.8523358106613159,-0.23942017555236816
"1,70136286843133E+018",5.883325927734375,9.959878921508789,1.1971008777618408,-0.31603461503982544
"1,70136286844131E+018",5.893306396484375,9.797073364257812,0.7852981686592102,-0.17238251864910126
"1,70136286845132E+018",5.90331689453125,9.605537414550781,1.2832920551300049,-0.28730419278144836
"1,7013628684613E+018",5.91329736328125,9.528923034667969,0.7182605266571045,-0.1628057211637497
"1,70136286847131E+018",5.923308349609375,9.911994934082031,1.1875240802764893,-0.23942017555236816
"1,70136286848132E+018",5.933319091796875,9.634267807006836,0.8427590131759644,-0.17238251864910126
"1,7013628684913E+018",5.94329931640625,10.055646896362305,1.2449848651885986,-0.35434186458587646
"1,70136286850131E+018",5.953310302734375,9.835380554199219,0.8236053586006165,-0.26815059781074524
"1,70136286851132E+018",5.963321044921875,10.046070098876953,1.1971008777618408,-0.4213795065879822
"1,70136286852133E+018",5.97333203125,9.442731857299805,0.871489405632019,-0.2968810200691223
"1,70136286853131E+018",5.98331201171875,9.797073364257812,1.139639973640442,-0.4596867263317108
"1,70136286854132E+018",5.993322998046875,9.423578262329102,0.9097966551780701,-0.43095630407333374
"1,7013628685513E+018",6.003303466796875,10.08437728881836,1.1013327836990356,-0.38307225704193115
"1,70136286856131E+018",6.01331396484375,9.47146224975586,1.0247182846069336,-0.363918662071228
"1,70136286857133E+018",6.023324951171875,9.825803756713867,1.072602391242981,-0.4405331015586853
"1,70136286858131E+018",6.033305419921875,9.586383819580078,0.9385270476341248,-0.2298433631658554
"1,70136286859132E+018",6.043316162109375,9.730035781860352,0.9672574996948242,-0.3256114423274994
"1,70136286860133E+018",6.053326904296875,9.653421401977539,0.9864110946655273,-0.17238251864910126
"1,70136286861131E+018",6.063307373046875,10.046070098876953,0.9097966551780701,-0.5841852426528931
"1,70136286862132E+018",6.073318115234375,9.653421401977539,1.0342950820922852,-0.3064578175544739
"1,7013628686313E+018",6.08329833984375,9.653421401977539,0.9672574996948242,-0.4405331015586853
"1,70136286864131E+018",6.09330908203125,9.576807022094727,1.1109095811843872,-0.2298433631658554
"1,70136286865132E+018",6.103320068359375,9.576807022094727,0.8140285611152649,-0.43095630407333374
"1,70136286866133E+018",6.1133310546875,9.825803756713867,1.1013327836990356,-0.40222588181495667
"1,70136286867131E+018",6.123311279296875,9.586383819580078,0.7852981686592102,-0.181959331035614
"1,70136286868132E+018",6.133322021484375,9.557653427124023,1.216254472732544,-0.2777273952960968
"1,7013628686913E+018",6.143302490234375,9.394847869873047,0.8427590131759644,-0.2106897532939911
"1,70136286870131E+018",6.153313232421875,9.739612579345703,1.2737152576446533,-0.3447650372982025
"1,70136286871132E+018",6.16332421875,9.481039047241211,0.8906430602073669,-0.4213795065879822
"1,7013628687213E+018",6.17330419921875,9.816226959228516,1.1683704853057861,-0.4213795065879822
"1,70136286873132E+018",6.183315185546875,9.605537414550781,0.8523358106613159,-0.5554547905921936
"1,70136286874133E+018",6.193326171875,9.758766174316406,1.216254472732544,-0.4692635238170624
"1,70136286875131E+018",6.20330615234375,9.423578262329102,1.072602391242981,-0.6512228846549988
"1,70136286876132E+018",6.213317138671875,9.481039047241211,1.139639973640442,-0.6129156351089478
"1,7013628687713E+018",6.223297607421875,9.308655738830566,1.0342950820922852,-0.5937620401382446
"1,70136286878131E+018",6.233308349609375,9.509769439697266,1.015141487121582,-0.689530074596405
"1,70136286879132E+018",6.243319091796875,9.47146224975586,1.139639973640442,-0.33518823981285095
"1,7013628688013E+018",6.253299560546875,9.490615844726562,1.0438719987869263,-0.5171475410461426
"1,70136286881131E+018",6.263310302734375,9.59596061706543,1.072602391242981,-0.23942017555236816
"1,70136286882132E+018",6.2733212890625,9.346963882446289,0.8810662031173706,-0.5650315880775452
"1,7013628688313E+018",6.28330126953125,9.557653427124023,1.2449848651885986,-0.3256114423274994
"1,70136286884131E+018",6.293312255859375,9.346963882446289,0.8810662031173706,-0.3256114423274994
"1,70136286885132E+018",6.3033232421875,9.481039047241211,1.292868971824646,-0.3447650372982025
"1,70136286886133E+018",6.313333984375,9.366117477416992,0.9097966551780701,-0.28730419278144836
"1,70136286887131E+018",6.323314208984375,9.308655738830566,1.235408067703247,-0.4118026793003082
"1,70136286888133E+018",6.333324951171875,9.509769439697266,0.9385270476341248,-0.4213795065879822
"1,70136286889131E+018",6.343305419921875,9.490615844726562,1.139639973640442,-0.5937620401382446
"1,70136286890132E+018",6.35331640625,9.442731857299805,1.216254472732544,-0.6607996821403503
"1,70136286891133E+018",6.363326904296875,9.327810287475586,1.1109095811843872,-0.7948749661445618
"1,70136286892131E+018",6.373307373046875,9.404424667358398,1.2641384601593018,-0.26815059781074524
"1,70136286893132E+018",6.383318359375,9.394847869873047,0.9576807022094727,-0.5937620401382446
"1,70136286894133E+018",6.3933291015625,9.710882186889648,1.235408067703247,-0.2777273952960968
"1,70136286895131E+018",6.403309326171875,9.452308654785156,0.9768342971801758,-0.38307225704193115
"1,70136286896132E+018",6.4133203125,9.423578262329102,1.3407529592514038,-0.2777273952960968
"1,70136286897133E+018",6.4233310546875,9.27034854888916,0.9864110946655273,-0.3256114423274994
"1,70136286898131E+018",6.433311279296875,9.165003776550293,1.37906014919281,-0.4118026793003082
"1,70136286899132E+018",6.443322021484375,9.519346237182617,1.015141487121582,-0.49799394607543945
"1,70136286900133E+018",6.4533330078125,9.433155059814453,1.2449848651885986,-0.689530074596405
"1,70136286901131E+018",6.4633134765625,9.53849983215332,1.4269442558288574,-0.6799532771110535
"1,70136286902132E+018",6.473323974609375,9.548076629638672,1.1875240802764893,-0.8523358106613159
"1,7013628690313E+018",6.483304443359375,9.624691009521484,1.436521053314209,-0.26815059781074524
"1,70136286904132E+018",6.4933154296875,9.41400146484375,1.2641384601593018,-0.5841852426528931
"1,70136286905133E+018",6.503326171875,9.624691009521484,1.5705963373184204,-0.26815059781074524
"1,70136286906131E+018",6.513306396484375,9.509769439697266,1.1300631761550903,-0.363918662071228
"1,70136286907132E+018",6.523317138671875,9.691728591918945,1.5322890281677246,-0.2585737705230713
"1,7013628690813E+018",6.533297607421875,9.53849983215332,1.3311761617660522,-0.5267243981361389
"1,70136286909131E+018",6.54330859375,9.385271072387695,1.6759412288665771,-0.5746083855628967
"1,70136286910132E+018",6.553319091796875,9.519346237182617,1.4844050407409668,-0.6512228846549988
"1,7013628691113E+018",6.563299560546875,9.53849983215332,1.4748282432556152,-0.5554547905921936
"1,70136286912131E+018",6.573310546875,9.519346237182617,1.4748282432556152,-0.43095630407333374
"1,70136286913132E+018",6.5833212890625,9.634267807006836,1.292868971824646,-0.5171475410461426
"1,7013628691413E+018",6.593301513671875,9.710882186889648,1.4269442558288574,-0.12449848651885986
"1,70136286915131E+018",6.6033125,9.481039047241211,1.2258312702178955,-0.363918662071228
"1,70136286916132E+018",6.6133232421875,9.452308654785156,1.4844050407409668,-0.2106897532939911
"1,7013628691713E+018",6.623303466796875,9.394847869873047,1.1492167711257935,-0.3256114423274994
"1,70136286918131E+018",6.633314208984375,9.481039047241211,1.50355863571167,-0.3064578175544739
"1,70136286919133E+018",6.6433251953125,9.768342971801758,1.1109095811843872,-0.3926490843296051
"1,70136286920131E+018",6.6533056640625,9.758766174316406,1.436521053314209,-0.20111294090747833
"1,70136286921132E+018",6.663316162109375,9.940725326538086,1.072602391242981,-0.2585737705230713
"1,7013628692213E+018",6.673296630859375,10.160991668701172,1.3120225667953491,-0.22026655077934265
"1,70136286923131E+018",6.6833076171875,9.883264541625977,0.9959878921508789,-0.43095630407333374
"1,70136286924132E+018",6.693318359375,10.074800491333008,1.3120225667953491,-0.4596867263317108
"1,7013628692513E+018",6.703298583984375,9.557653427124023,1.072602391242981,-0.4213795065879822
"1,70136286926131E+018",6.713309326171875,9.998186111450195,1.1204863786697388,-0.6129156351089478
"1,70136286927132E+018",6.7233203125,9.691728591918945,1.1109095811843872,-0.2777273952960968
"1,70136286928133E+018",6.733331298828125,9.825803756713867,1.0630255937576294,-0.4118026793003082
"1,70136286929131E+018",6.743311279296875,9.998186111450195,1.091755986213684,-0.12449848651885986
"1,70136286930132E+018",6.753322265625,9.988609313964844,0.8619126081466675,-0.49799394607543945
"1,7013628693113E+018",6.763302734375,9.816226959228516,1.235408067703247,-0.09576806426048279
"1,70136286932131E+018",6.7733134765625,9.758766174316406,1.015141487121582,-0.2968810200691223
"1,70136286933132E+018",6.78332421875,9.979032516479492,1.3503297567367554,-0.19153612852096558
"1,7013628693413E+018",6.7933046875,9.806650161743164,0.9097966551780701,-0.07661445438861847
"1,70136286935132E+018",6.8033154296875,9.710882186889648,1.1971008777618408,-0.22026655077934265
"1,70136286936133E+018",6.813326416015625,9.481039047241211,1.1109095811843872,-0.019153613597154617
"1,70136286937131E+018",6.823306396484375,9.528923034667969,1.2545616626739502,-0.28730419278144836
"1,70136286938132E+018",6.8333173828125,9.691728591918945,1.2832920551300049,-0.1149216815829277
"1,70136286939133E+018",6.843328369140625,9.433155059814453,1.1971008777618408,-0.4405331015586853
"1,70136286940131E+018",6.853308349609375,9.490615844726562,1.4460978507995605,-0.05746084079146385
"1,70136286941132E+018",6.8633193359375,9.126696586608887,1.072602391242981,-0.3734954595565796
"1,7013628694213E+018",6.8732998046875,9.433155059814453,1.4939818382263184,0
"1,70136286943131E+018",6.883310546875,9.394847869873047,1.0821791887283325,-0.19153612852096558
"1,70136286944132E+018",6.893321533203125,9.47146224975586,1.5705963373184204,0.05746084079146385
"1,7013628694513E+018",6.903301513671875,9.528923034667969,1.3982137441635132,-0.019153613597154617
"1,70136286946131E+018",6.9133125,9.337387084960938,1.3503297567367554,-0.13407529890537262
"1,70136286947132E+018",6.923323486328125,9.883264541625977,1.3982137441635132,0.2298433631658554
"1,7013628694813E+018",6.933303466796875,9.442731857299805,1.2258312702178955,-0.31603461503982544
"1,70136286949131E+018",6.943314453125,9.758766174316406,1.647210717201233,0.15322890877723694
"1,70136286950133E+018",6.9533251953125,9.624691009521484,1.2641384601593018,-0.06703764945268631
"1,70136286951131E+018",6.9633056640625,9.730035781860352,1.5705963373184204,0.3064578175544739
"1,70136286952132E+018",6.97331640625,9.481039047241211,1.2066776752471924,-0.1149216815829277
"1,70136286953133E+018",6.9833271484375,9.500192642211914,1.2449848651885986,0.038307227194309235
"1,70136286954131E+018",6.9933076171875,9.768342971801758,1.37906014919281,0.019153613597154617
"1,70136286955132E+018",7.003318603515625,9.509769439697266,1.0630255937576294,-0.181959331035614
"1,70136286956133E+018",7.0133291015625,9.806650161743164,1.3407529592514038,0.14365209639072418
"1,70136286957131E+018",7.0233095703125,9.346963882446289,0.9768342971801758,-0.2585737705230713
"1,70136286958132E+018",7.033320556640625,9.864110946655273,1.2832920551300049,0.20111294090747833
"1,7013628695913E+018",7.043300537109375,9.433155059814453,0.8619126081466675,-0.07661445438861847
"1,70136286960131E+018",7.0533115234375,9.701305389404297,1.1013327836990356,-0.05746084079146385
"1,70136286961132E+018",7.063322265625,9.615114212036133,1.072602391242981,-0.19153612852096558
"1,70136286962133E+018",7.073333251953125,9.481039047241211,1.0821791887283325,-0.28730419278144836
"1,70136286963131E+018",7.0833134765625,9.53849983215332,1.0247182846069336,0.24899697303771973
"1,70136286964132E+018",7.09332421875,9.47146224975586,0.6991068720817566,0.028730420395731926
"1,70136286965131E+018",7.1033046875,9.96945571899414,1.1109095811843872,0.4213795065879822
"1,70136286966132E+018",7.113315673828125,9.940725326538086,0.871489405632019,-0.028730420395731926
"1,70136286967133E+018",7.123326416015625,9.84495735168457,1.3694833517074585,0.028730420395731926
"1,70136286968131E+018",7.133306640625,9.720458984375,1.2066776752471924,-0.15322890877723694
"1,70136286969132E+018",7.1433173828125,9.279925346374512,1.0630255937576294,-0.40222588181495667
"1,7013628697013E+018",7.1532978515625,9.394847869873047,1.1109095811843872,-0.028730420395731926
"1,70136286971131E+018",7.16330859375,9.299078941345215,0.8906430602073669,-0.20111294090747833
"1,70136286972132E+018",7.1733193359375,9.586383819580078,1.292868971824646,0.4405331015586853
"1,7013628697313E+018",7.1832998046875,9.825803756713867,1.1300631761550903,-0.08619125932455063
"1,70136286974131E+018",7.193310791015625,9.701305389404297,1.1109095811843872,0.2106897532939911
"1,70136286975132E+018",7.2033212890625,10.122684478759766,1.2258312702178955,-0.20111294090747833
"1,7013628697613E+018",7.2133017578125,9.346963882446289,1.0342950820922852,-0.3926490843296051
"1,70136286977131E+018",7.223312744140625,9.768342971801758,1.3407529592514038,-0.23942017555236816
"1,70136286978132E+018",7.233323486328125,9.442731857299805,1.158793568611145,-0.4213795065879822
"1,70136286979133E+018",7.243334228515625,9.624691009521484,1.1109095811843872,-0.05746084079146385
"1,70136286980131E+018",7.253314453125,9.490615844726562,1.0821791887283325,0.038307227194309235
"1,70136286981133E+018",7.263325439453125,9.452308654785156,0.9481038451194763,-0.028730420395731926
"1,70136286982131E+018",7.2733056640625,9.96945571899414,1.4173674583435059,0.028730420395731926
"1,70136286983132E+018",7.28331640625,9.873687744140625,1.1013327836990356,-0.6033388376235962
"1,70136286984133E+018",7.293327392578125,9.548076629638672,1.3886369466781616,-0.13407529890537262
"1,70136286985131E+018",7.303307861328125,9.624691009521484,1.1204863786697388,-0.28730419278144836
"1,70136286986132E+018",7.313318603515625,9.279925346374512,1.0821791887283325,-0.2106897532939911
"1,7013628698713E+018",7.323298828125,9.998186111450195,1.292868971824646,-0.19153612852096558
"1,70136286988131E+018",7.333309814453125,9.691728591918945,1.1779472827911377,-0.35434186458587646
"1,70136286989132E+018",7.343320556640625,10.15141487121582,1.3311761617660522,-0.038307227194309235
"1,70136286990133E+018",7.35333154296875,10.046070098876953,1.1204863786697388,-0.4118026793003082
"1,70136286991131E+018",7.3633115234375,9.509769439697266,1.072602391242981,-0.4692635238170624
"1,70136286992132E+018",7.373322509765625,9.47146224975586,1.3120225667953491,-0.019153613597154617
"1,7013628699313E+018",7.383302978515625,9.47146224975586,1.0342950820922852,-0.49799394607543945
"1,70136286994131E+018",7.3933134765625,9.768342971801758,1.2545616626739502,-0.12449848651885986
"1,70136286995132E+018",7.403324462890625,10.046070098876953,1.0534487962722778,-0.49799394607543945
"1,70136286996131E+018",7.413304931640625,9.481039047241211,1.0055646896362305,-0.2106897532939911
"1,70136286997132E+018",7.423315673828125,9.739612579345703,1.1875240802764893,-0.19153612852096558
"1,70136286998133E+018",7.433326416015625,9.442731857299805,0.871489405632019,-0.43095630407333374
"1,70136286999131E+018",7.443306640625,9.787496566772461,1.139639973640442,-0.019153613597154617
"1,70136287000132E+018",7.453317626953125,9.77791976928711,1.091755986213684,-0.38307225704193115
"1,7013628700113E+018",7.4632978515625,9.567230224609375,1.0630255937576294,-0.4118026793003082
"1,70136287002131E+018",7.47330859375,9.892841339111328,1.0342950820922852,-0.038307227194309235
"1,70136287003132E+018",7.483319580078125,9.567230224609375,0.6224924325942993,-0.33518823981285095
"1,7013628700413E+018",7.493300048828125,9.509769439697266,1.0438719987869263,-0.009576806798577309
"1,70136287005131E+018",7.503310791015625,9.59596061706543,0.9576807022094727,-0.2106897532939911
"1,70136287006132E+018",7.513321533203125,9.615114212036133,0.9576807022094727,-0.10534487664699554
"1,7013628700713E+018",7.523302001953125,9.921571731567383,1.0055646896362305,-0.009576806798577309
"1,70136287008131E+018",7.533312744140625,9.653421401977539,0.7565677165985107,-0.24899697303771973
"1,70136287009132E+018",7.54332373046875,9.615114212036133,0.8523358106613159,0.009576806798577309
"1,7013628701013E+018",7.5533037109375,9.768342971801758,0.9959878921508789,-0.17238251864910126
"1,70136287011132E+018",7.563314697265625,9.567230224609375,0.9864110946655273,-0.31603461503982544
"1,70136287012133E+018",7.57332568359375,9.864110946655273,1.0438719987869263,0.2106897532939911
"1,70136287013131E+018",7.5833056640625,9.509769439697266,0.9289502501487732,-0.2585737705230713
"1,70136287014132E+018",7.593316650390625,9.41400146484375,1.0534487962722778,-0.009576806798577309
"1,70136287015133E+018",7.603327392578125,9.691728591918945,1.2832920551300049,-0.08619125932455063
"1,70136287016131E+018",7.613307861328125,9.318233489990234,1.235408067703247,-0.2106897532939911
"1,70136287017132E+018",7.623318603515625,9.41400146484375,1.3311761617660522,0.1628057211637497
"1,70136287018133E+018",7.633329345703125,9.308655738830566,1.1779472827911377,-0.009576806798577309
"1,70136287019131E+018",7.643309814453125,9.346963882446289,1.1492167711257935,0.06703764945268631
"1,70136287020132E+018",7.65332080078125,9.624691009521484,1.455674648284912,0.20111294090747833
"1,7013628702113E+018",7.66330078125,9.385271072387695,1.3886369466781616,-0.12449848651885986
"1,70136287022131E+018",7.673311767578125,9.682151794433594,1.3503297567367554,0.2298433631658554
"1,70136287023132E+018",7.683322509765625,9.567230224609375,1.1300631761550903,-0.26815059781074524
"1,70136287024133E+018",7.69333349609375,9.222464561462402,1.1971008777618408,0.10534487664699554
"1,70136287025131E+018",7.703313720703125,9.567230224609375,1.3886369466781616,0
"1,70136287026132E+018",7.713324462890625,9.394847869873047,1.292868971824646,0.05746084079146385
"1,70136287027131E+018",7.723304931640625,10.141838073730469,1.3215993642807007,0.3064578175544739
"1,70136287028132E+018",7.73331591796875,9.548076629638672,1.0247182846069336,0.05746084079146385
"1,70136287029133E+018",7.743326416015625,9.653421401977539,1.292868971824646,0.26815059781074524
"1,70136287030131E+018",7.753306884765625,9.136273384094238,1.3694833517074585,-0.028730420395731926
"1,70136287031132E+018",7.76331787109375,9.567230224609375,1.4173674583435059,-0.047884032130241394
"1,70136287032133E+018",7.77332861328125,9.892841339111328,1.2545616626739502,0.17238251864910126
"1,70136287033131E+018",7.783308837890625,9.634267807006836,0.871489405632019,-0.05746084079146385
"1,70136287034132E+018",7.793319580078125,9.53849983215332,1.1971008777618408,0.2585737705230713
"1,70136287035133E+018",7.80333056640625,9.423578262329102,0.8236053586006165,-0.047884032130241394
"1,70136287036131E+018",7.813310791015625,9.835380554199219,1.3886369466781616,0.15322890877723694
"1,70136287037132E+018",7.823321533203125,9.787496566772461,0.871489405632019,-0.17238251864910126
"1,70136287038133E+018",7.83333251953125,9.710882186889648,1.359906554222107,-0.009576806798577309
"1,70136287039131E+018",7.84331298828125,9.394847869873047,0.8331822156906128,0.2298433631658554
"1,70136287040132E+018",7.853323486328125,9.53849983215332,0.9385270476341248,0.181959331035614
"1,7013628704113E+018",7.863303955078125,9.720458984375,1.1492167711257935,0.17238251864910126
"1,70136287042131E+018",7.873314697265625,9.873687744140625,0.8331822156906128,-0.31603461503982544
"1,70136287043133E+018",7.88332568359375,9.873687744140625,1.091755986213684,0.10534487664699554
"1,70136287044131E+018",7.893305908203125,9.394847869873047,0.7948749661445618,-0.2585737705230713
"1,70136287045132E+018",7.903316650390625,9.586383819580078,1.1779472827911377,0.08619125932455063
"1,70136287046133E+018",7.91332763671875,9.509769439697266,0.7374141216278076,0.06703764945268631
"1,70136287047131E+018",7.92330810546875,9.988609313964844,1.2066776752471924,-0.019153613597154617
"1,70136287048132E+018",7.933318603515625,9.490615844726562,0.727837324142456,0.047884032130241394
"1,7013628704913E+018",7.943299072265625,9.47146224975586,1.235408067703247,-0.23942017555236816
"1,70136287050131E+018",7.95331005859375,9.509769439697266,0.9193734526634216,-0.23942017555236816
"1,70136287051132E+018",7.96332080078125,9.576807022094727,1.1300631761550903,-0.40222588181495667
"1,7013628705213E+018",7.973301025390625,9.509769439697266,1.0821791887283325,-0.5363011956214905
"1,70136287053131E+018",7.983311767578125,9.691728591918945,0.8236053586006165,-0.47884035110473633
"1,70136287054132E+018",7.99332275390625,9.931148529052734,0.9002198576927185,-0.12449848651885986
"1,7013628705513E+018",8.003302978515626,9.66299819946289,0.7086837291717529,-0.47884035110473633
"1,70136287056131E+018",8.013313720703126,9.816226959228516,1.0821791887283325,-0.17238251864910126
"1,70136287057132E+018",8.02332470703125,9.66299819946289,0.871489405632019,-0.4884171485900879
"1,7013628705813E+018",8.03330517578125,9.883264541625977,1.235408067703247,-0.3256114423274994
"1,70136287059132E+018",8.043315673828126,9.701305389404297,0.6224924325942993,-0.4405331015586853
"1,70136287060133E+018",8.05332666015625,9.672574996948242,1.3886369466781616,-0.4692635238170624
"1,70136287061131E+018",8.06330712890625,9.385271072387695,1.0247182846069336,-0.507570743560791
"1,70136287062132E+018",8.07331787109375,9.682151794433594,1.3694833517074585,-0.23942017555236816
"1,7013628706313E+018",8.083298095703125,9.165003776550293,1.0821791887283325,-0.2106897532939911
"1,70136287064131E+018",8.093308837890625,9.08838939666748,1.0342950820922852,0
"1,70136287065132E+018",8.10331982421875,8.877699851989746,0.7565677165985107,0.2106897532939911
"1,7013628706613E+018",8.11330029296875,8.427590370178223,0.9097966551780701,0.14365209639072418
"1,70136287067131E+018",8.123310791015625,8.724471092224121,1.1779472827911377,0.22026655077934265
"1,70136287068132E+018",8.13332177734375,8.398859977722168,0.8427590131759644,0.07661445438861847
"1,7013628706913E+018",8.14330224609375,8.954314231872559,1.1492167711257935,0.09576806426048279
"1,70136287070131E+018",8.15331298828125,9.155426979064941,0.6799532771110535,0.28730419278144836
"1,70136287071132E+018",8.16332373046875,9.299078941345215,1.292868971824646,0.4213795065879822
"1,7013628707213E+018",8.173303955078126,9.404424667358398,0.7086837291717529,0.05746084079146385
"1,70136287073131E+018",8.18331494140625,9.892841339111328,1.1013327836990356,0.038307227194309235
"1,70136287074133E+018",8.193325927734374,9.720458984375,0.545877993106842,-0.3734954595565796
"1,70136287075131E+018",8.203305908203125,10.017339706420898,1.1013327836990356,-0.8331822156906128
"1,70136287076132E+018",8.21331689453125,9.739612579345703,1.091755986213684,-1.072602391242981
"1,7013628707713E+018",8.22329736328125,9.90241813659668,1.3120225667953491,-0.5841852426528931
"1,70136287078131E+018",8.233307861328125,10.180145263671875,1.0055646896362305,-0.49799394607543945
"1,70136287079132E+018",8.24331884765625,10.055646896362305,0.49799394607543945,-0.07661445438861847
"1,70136287080133E+018",8.25332958984375,9.873687744140625,0.8619126081466675,-0.14365209639072418
"1,70136287081131E+018",8.26331005859375,8.954314231872559,0.7565677165985107,0.07661445438861847
"1,70136287082132E+018",8.27332080078125,9.232041358947754,1.1683704853057861,0.23942017555236816
"1,7013628708313E+018",8.283301025390625,9.21288776397705,0.7661445140838623,0.35434186458587646
"1,70136287084131E+018",8.29331201171875,9.241618156433105,1.2737152576446533,0.3256114423274994
"1,70136287085132E+018",8.303322998046875,8.96389102935791,0.9097966551780701,0
"1,7013628708613E+018",8.313302978515624,9.299078941345215,1.3120225667953491,0.08619125932455063
"1,70136287087131E+018",8.32331396484375,9.77791976928711,0.8427590131759644,-0.1628057211637497
"1,70136287088133E+018",8.33332470703125,10.02691650390625,1.0438719987869263,0.3064578175544739
"1,70136287089131E+018",8.34330517578125,9.739612579345703,1.072602391242981,-0.2968810200691223
"1,70136287090132E+018",8.35331591796875,9.08838939666748,1.139639973640442,-0.09576806426048279
"1,7013628709113E+018",8.363296142578125,9.327810287475586,1.1013327836990356,-0.22026655077934265
"1,70136287092131E+018",8.37330712890625,9.385271072387695,0.727837324142456,-0.08619125932455063
"1,70136287093132E+018",8.383318115234376,9.758766174316406,0.9959878921508789,-0.17238251864910126
"1,7013628709413E+018",8.393298095703125,9.519346237182617,0.7757213711738586,0.038307227194309235
"1,70136287095131E+018",8.40330908203125,9.883264541625977,1.072602391242981,0.2106897532939911
"1,70136287096132E+018",8.41331982421875,9.576807022094727,0.6416460275650024,0.038307227194309235
"1,7013628709713E+018",8.423300048828125,9.53849983215332,1.0821791887283325,0.019153613597154617
"1,70136287098131E+018",8.43331103515625,9.174580574035645,0.9481038451194763,-0.1628057211637497
"1,70136287099132E+018",8.44332177734375,9.528923034667969,1.2258312702178955,0.13407529890537262
"1,70136287100133E+018",8.453332763671876,9.701305389404297,0.7086837291717529,-0.181959331035614
"1,70136287101131E+018",8.46331298828125,9.634267807006836,1.1683704853057861,-0.13407529890537262
"1,70136287102132E+018",8.47332373046875,9.586383819580078,1.0247182846069336,-0.5554547905921936
"1,7013628710313E+018",8.48330419921875,9.375694274902344,0.9672574996948242,-0.31603461503982544
"1,70136287104132E+018",8.493315185546875,9.624691009521484,1.2066776752471924,-0.1628057211637497
"1,70136287105133E+018",8.503325927734375,9.576807022094727,0.8523358106613159,0
"1,70136287106131E+018",8.51330615234375,9.96945571899414,0.9672574996948242,0.3734954595565796
"1,70136287107132E+018",8.52331689453125,9.672574996948242,0.7661445140838623,0.10534487664699554
"1,7013628710813E+018",8.53329736328125,9.84495735168457,1.1875240802764893,0.14365209639072418
"1,70136287109131E+018",8.54330810546875,9.260771751403809,0.7469909191131592,0.13407529890537262
"1,70136287110132E+018",8.55331884765625,9.433155059814453,1.2545616626739502,0.181959331035614
"1,70136287111133E+018",8.563329833984374,9.404424667358398,0.7661445140838623,0.08619125932455063
"1,70136287112131E+018",8.573310302734376,9.452308654785156,1.3024457693099976,0.14365209639072418
"1,70136287113132E+018",8.58332080078125,9.749189376831055,0.8427590131759644,-0.047884032130241394
"1,70136287114133E+018",8.593331787109374,9.854534149169922,0.9959878921508789,0.14365209639072418
"1,70136287115131E+018",8.60331201171875,9.691728591918945,0.871489405632019,-0.028730420395731926
"1,70136287116132E+018",8.613322998046876,9.394847869873047,0.9097966551780701,0.1149216815829277
"1,7013628711713E+018",8.62330322265625,9.452308654785156,0.9289502501487732,0.26815059781074524
"1,70136287118131E+018",8.63331396484375,9.41400146484375,0.8523358106613159,0
"1,70136287119133E+018",8.643324951171875,9.605537414550781,1.015141487121582,0.24899697303771973
"1,70136287120131E+018",8.65330517578125,9.423578262329102,0.7374141216278076,0.22026655077934265
"1,70136287121132E+018",8.66331591796875,9.825803756713867,0.9959878921508789,0.40222588181495667
"1,70136287122133E+018",8.673326904296875,9.739612579345703,0.5554547905921936,0.6607996821403503
"1,70136287123131E+018",8.683307373046874,9.710882186889648,1.0821791887283325,0.7661445140838623
"1,70136287124132E+018",8.69331787109375,9.576807022094727,0.689530074596405,0.7374141216278076
"1,7013628712513E+018",8.70329833984375,9.749189376831055,1.015141487121582,0.47884035110473633
"1,70136287126131E+018",8.71330908203125,9.557653427124023,0.7469909191131592,0.09576806426048279
"1,70136287127132E+018",8.723320068359374,9.433155059814453,0.9959878921508789,0.2298433631658554
"1,70136287128133E+018",8.7333310546875,9.117119789123535,1.2449848651885986,0.33518823981285095
"1,70136287129131E+018",8.74331103515625,9.165003776550293,0.8619126081466675,0.3256114423274994
"1,70136287130132E+018",8.753322021484376,9.586383819580078,0.9959878921508789,0.5363011956214905
"1,7013628713113E+018",8.763302490234375,9.47146224975586,0.7757213711738586,0.5363011956214905
"1,70136287132131E+018",8.77331298828125,9.53849983215332,0.9576807022094727,0.8044517636299133
"1,70136287133132E+018",8.783323974609376,9.059659004211426,0.6416460275650024,0.6703764796257019
"1,7013628713413E+018",8.79330419921875,9.251194953918457,1.0342950820922852,0.3064578175544739
"1,70136287135132E+018",8.803315185546875,9.174580574035645,0.6416460275650024,0.3734954595565796
"1,70136287136133E+018",8.813325927734375,9.165003776550293,1.2066776752471924,0.5841852426528931
"1,70136287137137E+018",8.8233671875,9.251194953918457,0.9193734526634216,0.4692635238170624
"1,70136287138132E+018",8.833317138671875,9.691728591918945,0.8427590131759644,0.6129156351089478
"1,7013628713913E+018",8.84329736328125,9.682151794433594,0.9864110946655273,0.28730419278144836
"1,70136287140131E+018",8.85330810546875,9.279925346374512,1.0630255937576294,-0.12449848651885986
"1,70136287141132E+018",8.863319091796875,9.806650161743164,1.1204863786697388,0.3064578175544739
"1,7013628714213E+018",8.873299560546876,8.810662269592285,0.7948749661445618,0.19153612852096558
"1,70136287143131E+018",8.88331005859375,9.96945571899414,1.0055646896362305,0.6991068720817566
"1,70136287144132E+018",8.893321044921874,9.289502143859863,0.6607996821403503,0.5650315880775452
"1,7013628714513E+018",8.90330126953125,10.5344877243042,1.139639973640442,0.49799394607543945
"1,70136287146131E+018",8.913312255859376,10.448296546936035,0.6607996821403503,0.5650315880775452
"1,70136287147132E+018",8.9233232421875,9.806650161743164,1.1204863786697388,-0.09576806426048279
"1,7013628714813E+018",8.93330322265625,9.873687744140625,0.9385270476341248,-0.20111294090747833
"1,70136287149131E+018",8.943314208984376,8.992621421813965,1.235408067703247,-0.6033388376235962
"1,70136287150133E+018",8.953324951171876,10.093954086303711,0.8906430602073669,-0.23942017555236816
"1,70136287151131E+018",8.96330517578125,9.921571731567383,0.8523358106613159,0.009576806798577309
"1,70136287152132E+018",8.973316162109375,10.113107681274414,1.0055646896362305,-0.08619125932455063
"1,70136287153133E+018",8.983326904296876,10.20887565612793,0.7661445140838623,0.019153613597154617
"1,70136287154131E+018",8.993307373046875,9.53849983215332,0.9768342971801758,-0.08619125932455063
"1,70136287155132E+018",9.003318115234375,10.228029251098633,0.6416460275650024,-0.12449848651885986
"1,70136287156133E+018",9.013328857421875,9.634267807006836,1.072602391242981,-0.22026655077934265
"1,70136287157131E+018",9.023309326171875,10.065223693847656,0.871489405632019,-0.10534487664699554
"1,70136287158132E+018",9.0333203125,10.199298858642578,1.1971008777618408,0.038307227194309235
"1,70136287159133E+018",9.043330810546875,9.59596061706543,0.7565677165985107,-0.10534487664699554
"1,70136287160131E+018",9.053311279296874,10.438719749450684,1.1683704853057861,0.1149216815829277
"1,70136287161132E+018",9.063322021484375,9.385271072387695,1.0630255937576294,-0.33518823981285095
"1,7013628716213E+018",9.07330224609375,10.486603736877441,0.9864110946655273,-0.13407529890537262
"1,70136287163131E+018",9.083313232421874,9.53849983215332,1.0342950820922852,-0.33518823981285095
"1,70136287164132E+018",9.093323974609374,9.682151794433594,0.9002198576927185,-0.23942017555236816
"1,7013628716513E+018",9.103304443359375,10.08437728881836,1.139639973640442,0.2777273952960968
"1,70136287166132E+018",9.1133154296875,9.21288776397705,0.871489405632019,-0.2968810200691223
"1,70136287167133E+018",9.123325927734374,10.927136421203613,1.072602391242981,0.2298433631658554
"1,70136287168131E+018",9.133306396484375,8.973467826843262,0.8906430602073669,-0.07661445438861847
"1,70136287169132E+018",9.143317138671875,10.093954086303711,1.216254472732544,0.047884032130241394
"1,70136287170133E+018",9.153328125,9.710882186889648,0.7086837291717529,-0.038307227194309235
"1,70136287171131E+018",9.163308349609375,9.758766174316406,1.0438719987869263,-0.009576806798577309
"1,70136287172132E+018",9.173319091796875,10.103530883789062,1.0342950820922852,-0.038307227194309235
"1,7013628717313E+018",9.183299560546875,9.653421401977539,1.0438719987869263,-0.1149216815829277
"1,70136287174131E+018",9.193310302734375,10.017339706420898,1.359906554222107,-0.07661445438861847
"1,70136287175132E+018",9.203321044921875,9.84495735168457,1.1204863786697388,-0.181959331035614
"1,70136287176133E+018",9.21333203125,10.429142951965332,1.1683704853057861,-0.019153613597154617
"1,70136287177131E+018",9.2233125,9.911994934082031,0.689530074596405,0.1628057211637497
"1,70136287178132E+018",9.233322998046875,9.701305389404297,1.2545616626739502,0.13407529890537262
"1,70136287179133E+018",9.243333984375,9.806650161743164,0.6320692300796509,0.09576806426048279
"1,70136287180131E+018",9.253314208984374,9.749189376831055,1.158793568611145,-0.07661445438861847
"1,70136287181133E+018",9.2633251953125,9.720458984375,0.9385270476341248,-0.26815059781074524
"1,70136287182131E+018",9.273305419921876,9.797073364257812,0.7948749661445618,-0.06703764945268631
"1,70136287183132E+018",9.283316162109376,10.247182846069336,1.1013327836990356,-0.07661445438861847
"1,70136287184133E+018",9.2933271484375,9.701305389404297,0.9193734526634216,-0.31603461503982544
"1,70136287185131E+018",9.303307373046875,10.295066833496094,1.0247182846069336,-0.33518823981285095
"1,70136287186132E+018",9.313318115234376,9.490615844726562,0.6607996821403503,-0.2968810200691223
"1,70136287187133E+018",9.3233291015625,9.442731857299805,1.216254472732544,-0.019153613597154617
"1,70136287188131E+018",9.333309326171875,9.299078941345215,0.5554547905921936,0.12449848651885986
"1,70136287189132E+018",9.3433203125,9.385271072387695,0.9193734526634216,0.07661445438861847
"1,70136287190133E+018",9.3533310546875,9.835380554199219,0.7086837291717529,0.07661445438861847
"1,70136287191131E+018",9.363311279296875,9.548076629638672,0.8140285611152649,-0.20111294090747833
"1,70136287192132E+018",9.373322265625,9.366117477416992,1.0630255937576294,-0.5171475410461426
"1,70136287193133E+018",9.3833330078125,9.624691009521484,0.7182605266571045,-0.43095630407333374
"1,70136287194131E+018",9.393313232421875,9.260771751403809,1.072602391242981,-0.181959331035614
"1,70136287195132E+018",9.40332421875,9.768342971801758,0.6512228846549988,-0.10534487664699554
"1,7013628719613E+018",9.4133046875,9.193734169006348,1.1204863786697388,0.009576806798577309
"1,70136287197132E+018",9.423315185546874,9.289502143859863,0.7661445140838623,-0.09576806426048279
"1,70136287198133E+018",9.433326171875,9.653421401977539,0.7852981686592102,0.028730420395731926
"1,70136287199131E+018",9.443306396484376,8.935160636901855,0.727837324142456,-0.1628057211637497
"1,70136287200132E+018",9.4533173828125,9.366117477416992,0.6512228846549988,0
"1,70136287201133E+018",9.463327880859374,8.877699851989746,0.9002198576927185,0.1628057211637497
"1,70136287202131E+018",9.473308349609376,9.854534149169922,0.6703764796257019,-0.09576806426048279
"1,70136287203132E+018",9.4833193359375,9.481039047241211,1.0438719987869263,0.2298433631658554
"1,70136287204133E+018",9.493330078125,9.050082206726074,0.7948749661445618,-0.40222588181495667
"1,70136287205131E+018",9.503310302734375,9.643844604492188,0.7757213711738586,0.1149216815829277
"1,70136287206132E+018",9.5133212890625,8.83939266204834,0.689530074596405,-0.09576806426048279
"1,70136287207133E+018",9.52333203125,9.35654067993164,0.6512228846549988,0.2585737705230713
"1,70136287208131E+018",9.5333125,8.71489429473877,0.8044517636299133,0.3447650372982025
"1,70136287209132E+018",9.5433232421875,9.318233489990234,0.4692635238170624,-0.08619125932455063
"1,70136287210133E+018",9.553333984375,8.983044624328613,1.015141487121582,0.3734954595565796
"1,70136287211131E+018",9.563314453125,8.542511940002441,0.7852981686592102,-0.363918662071228
"1,70136287212133E+018",9.5733251953125,9.126696586608887,0.7852981686592102,0.5650315880775452
"1,70136287213131E+018",9.583305419921874,8.705317497253418,0.8044517636299133,-0.22026655077934265
"1,70136287214132E+018",9.59331640625,9.404424667358398,0.6991068720817566,0.3926490843296051
"1,70136287215133E+018",9.6033271484375,9.41400146484375,0.689530074596405,0.3256114423274994
"1,70136287216131E+018",9.613307373046876,8.954314231872559,0.4884171485900879,0.06703764945268631
"1,70136287217132E+018",9.623318359375,9.461885452270508,0.9385270476341248,0.47884035110473633
"1,70136287218133E+018",9.6333291015625,8.877699851989746,0.6991068720817566,-0.17238251864910126
"1,70136287219131E+018",9.6433095703125,9.576807022094727,0.7757213711738586,0.2585737705230713
"1,70136287220132E+018",9.6533203125,9.126696586608887,0.8810662031173706,0.019153613597154617
"1,70136287221133E+018",9.6633310546875,8.944737434387207,0.6607996821403503,0.1149216815829277
"1,70136287222131E+018",9.6733115234375,9.385271072387695,0.9768342971801758,0.2968810200691223
"1,70136287223132E+018",9.683322265625,9.050082206726074,0.5554547905921936,0
"1,7013628722413E+018",9.693302490234375,9.509769439697266,0.9576807022094727,0.3447650372982025
"1,70136287225131E+018",9.7033134765625,9.107542991638184,0.8236053586006165,0.12449848651885986
"1,70136287226132E+018",9.71332421875,9.241618156433105,0.7469909191131592,0.4213795065879822
"1,70136287227131E+018",9.7233046875,9.653421401977539,0.6129156351089478,0.13407529890537262
"1,70136287228132E+018",9.7333154296875,9.327810287475586,0.507570743560791,0.028730420395731926
"1,70136287229133E+018",9.743326171875,9.59596061706543,0.8044517636299133,0.26815059781074524
"1,70136287230131E+018",9.753306640625,9.117119789123535,0.7661445140838623,0.1149216815829277
"1,70136287231132E+018",9.7633173828125,9.481039047241211,1.072602391242981,0.545877993106842
"1,7013628723213E+018",9.773297607421876,10.074800491333008,0.49799394607543945,0.40222588181495667
"1,70136287233131E+018",9.78330859375,9.768342971801758,0.45010992884635925,0.47884035110473633
"1,70136287234132E+018",9.7933193359375,9.643844604492188,0.7565677165985107,0.5937620401382446
"1,70136287235133E+018",9.803330322265625,8.887276649475098,0.7852981686592102,0.2585737705230713
"1,70136287236131E+018",9.813310546875,9.605537414550781,1.0438719987869263,0.3926490843296051
"1,70136287237132E+018",9.8233212890625,9.481039047241211,0.6799532771110535,0
"1,70136287238133E+018",9.833332275390624,9.433155059814453,0.8236053586006165,0.1628057211637497
"1,70136287239131E+018",9.8433125,9.59596061706543,0.8236053586006165,0.33518823981285095
"1,70136287240132E+018",9.8533232421875,9.691728591918945,0.5841852426528931,0.40222588181495667
"1,7013628724113E+018",9.8633037109375,10.323798179626465,0.7086837291717529,0.8044517636299133
"1,70136287242131E+018",9.873314453125,10.093954086303711,0.6607996821403503,0.33518823981285095
"1,70136287243133E+018",9.8833251953125,9.710882186889648,0.9002198576927185,0.4596867263317108
"1,70136287244131E+018",9.8933056640625,9.797073364257812,0.6799532771110535,-0.028730420395731926
"1,70136287245132E+018",9.90331640625,9.35654067993164,0.8619126081466675,-0.038307227194309235
"1,70136287246133E+018",9.913327392578125,9.959878921508789,1.0342950820922852,0.4213795065879822
"1,70136287247131E+018",9.9233076171875,9.653421401977539,0.6224924325942993,0.2968810200691223
"1,70136287248132E+018",9.933318359375,10.228029251098633,0.7565677165985107,0.5363011956214905
"1,7013628724913E+018",9.943298828125,9.979032516479492,0.7565677165985107,0.7182605266571045
"1,70136287250131E+018",9.953309814453124,9.84495735168457,0.6703764796257019,0.3064578175544739
"1,70136287251132E+018",9.9633203125,9.835380554199219,0.8331822156906128,0.5650315880775452
"1,7013628725213E+018",9.97330078125,9.500192642211914,0.727837324142456,-0.009576806798577309
"1,70136287253131E+018",9.9833115234375,9.548076629638672,0.9576807022094727,0.20111294090747833
"1,70136287254132E+018",9.993322509765624,9.739612579345703,0.6512228846549988,0
"1,7013628725513E+018",10.003302734375,9.509769439697266,0.5937620401382446,0.4118026793003082
"1,70136287256131E+018",10.0133134765625,10.342951774597168,0.7469909191131592,0.5937620401382446
"1,70136287257132E+018",10.023324462890624,10.074800491333008,0.6129156351089478,0.7661445140838623
"1,7013628725813E+018",10.0333046875,10.228029251098633,0.9289502501487732,0.5363011956214905
"1,70136287259132E+018",10.0433154296875,9.864110946655273,0.4884171485900879,0.14365209639072418
"1,70136287260133E+018",10.053326416015626,9.59596061706543,0.6416460275650024,0
"1,70136287261131E+018",10.063306640625,9.576807022094727,0.7661445140838623,0.49799394607543945
"1,70136287262132E+018",10.0733173828125,9.66299819946289,0.7469909191131592,0.2585737705230713
"1,70136287263133E+018",10.083328369140625,10.218452453613281,0.8140285611152649,0.7374141216278076
"1,70136287264131E+018",10.09330859375,10.036493301391602,0.6703764796257019,0.2106897532939911
"1,70136287265132E+018",10.103319580078125,9.586383819580078,0.6703764796257019,0.5841852426528931
"1,70136287266133E+018",10.113330322265625,9.337387084960938,0.8619126081466675,0.40222588181495667
"1,70136287267131E+018",10.123310546875,8.848969459533691,0.5363011956214905,0.17238251864910126
"1,70136287268132E+018",10.133321533203125,9.193734169006348,0.727837324142456,0.09576806426048279
"1,70136287269133E+018",10.143332275390625,9.107542991638184,0.5363011956214905,0.047884032130241394
"1,70136287270131E+018",10.1533125,9.078812599182129,0.6320692300796509,0.12449848651885986
"1,70136287271132E+018",10.163323486328125,9.768342971801758,0.9576807022094727,0.40222588181495667
"1,7013628727213E+018",10.1733037109375,9.643844604492188,0.8044517636299133,0.12449848651885986
"1,70136287273132E+018",10.183314697265626,10.113107681274414,0.5267243981361389,0.4692635238170624
"1,70136287274133E+018",10.1933251953125,9.77791976928711,0.6224924325942993,0.22026655077934265
"1,70136287275131E+018",10.2033056640625,9.423578262329102,0.6033388376235962,0.3926490843296051
"1,70136287276132E+018",10.213316650390626,9.653421401977539,0.689530074596405,0.3734954595565796
"1,70136287277133E+018",10.223327392578126,9.222464561462402,0.6512228846549988,0.20111294090747833
"1,70136287278131E+018",10.2333076171875,9.21288776397705,0.6416460275650024,0.2777273952960968
"1,70136287279132E+018",10.243318603515625,9.730035781860352,0.5267243981361389,0.14365209639072418
"1,7013628728013E+018",10.253298828125,9.720458984375,0.5267243981361389,0.07661445438861847
"1,70136287281131E+018",10.2633095703125,10.141838073730469,0.6607996821403503,0.35434186458587646
"1,70136287282132E+018",10.273320556640625,9.825803756713867,0.6799532771110535,0.24899697303771973
"1,70136287283133E+018",10.283331298828125,9.816226959228516,0.5937620401382446,0.5650315880775452
"1,70136287284131E+018",10.293311767578125,9.854534149169922,0.4596867263317108,0.10534487664699554
"1,70136287285132E+018",10.303322265625,9.394847869873047,0.3064578175544739,0.22026655077934265
"1,7013628728613E+018",10.313302734375,9.346963882446289,0.49799394607543945,0.40222588181495667
"1,70136287287131E+018",10.323313720703124,9.2033109664917,0.33518823981285095,0.1628057211637497
"1,70136287288132E+018",10.333324462890625,9.519346237182617,0.507570743560791,0.3256114423274994
"1,70136287289131E+018",10.3433046875,9.768342971801758,0.7086837291717529,0.23942017555236816
"1,70136287290132E+018",10.353315673828124,9.528923034667969,0.3926490843296051,0.28730419278144836
"1,70136287291133E+018",10.363326416015624,9.90241813659668,0.363918662071228,0.4596867263317108
"1,70136287292131E+018",10.373306884765626,10.122684478759766,0.23942017555236816,0.1628057211637497
"1,70136287293132E+018",10.3833173828125,9.825803756713867,0.2968810200691223,0.4596867263317108
"1,70136287294133E+018",10.393328369140624,9.59596061706543,0.7182605266571045,0.22026655077934265
"1,70136287295131E+018",10.403308837890625,9.193734169006348,0.4213795065879822,0.028730420395731926
"1,70136287296132E+018",10.413319580078126,9.461885452270508,0.3734954595565796,0.2106897532939911
"1,7013628729713E+018",10.4232998046875,9.500192642211914,0.5937620401382446,-0.08619125932455063
"1,70136287298131E+018",10.433310791015625,9.53849983215332,0.6033388376235962,-0.05746084079146385
"1,70136287299132E+018",10.443321533203125,10.08437728881836,0.5746083855628967,0.40222588181495667
"1,7013628730013E+018",10.4533017578125,9.806650161743164,0.4118026793003082,0.038307227194309235
"1,70136287301131E+018",10.463312744140625,9.672574996948242,0.5171475410461426,0.10534487664699554
"1,70136287302132E+018",10.473323486328125,9.787496566772461,0.5650315880775452,-0.12449848651885986
"1,7013628730313E+018",10.483303955078124,9.232041358947754,0.43095630407333374,-0.12449848651885986
"1,70136287304131E+018",10.493314453125,9.481039047241211,0.5554547905921936,-0.06703764945268631
"1,70136287305133E+018",10.503325439453125,9.576807022094727,0.7374141216278076,-0.12449848651885986
"1,70136287306131E+018",10.513305908203124,9.672574996948242,0.6129156351089478,-0.06703764945268631
"1,70136287307132E+018",10.523316650390624,10.017339706420898,0.4405331015586853,0.009576806798577309
"1,70136287308133E+018",10.53332763671875,9.519346237182617,0.363918662071228,-0.2298433631658554
"1,70136287309131E+018",10.543307861328126,9.299078941345215,0.5841852426528931,-0.2585737705230713
"1,70136287310132E+018",10.553318603515624,9.53849983215332,0.5937620401382446,-0.3447650372982025
"1,7013628731113E+018",10.563299072265625,9.576807022094727,0.40222588181495667,-0.31603461503982544
"1,70136287312131E+018",10.573309814453125,9.605537414550781,0.6224924325942993,0.1149216815829277
"1,70136287313132E+018",10.583320556640626,9.394847869873047,0.47884035110473633,-0.26815059781074524
"1,70136287314133E+018",10.59333154296875,9.586383819580078,0.2585737705230713,-0.22026655077934265
"1,70136287315131E+018",10.603311767578125,9.701305389404297,0.545877993106842,-0.31603461503982544
"1,70136287316132E+018",10.613322509765625,9.232041358947754,0.4118026793003082,-0.43095630407333374
"1,7013628731713E+018",10.623302978515625,9.2033109664917,0.49799394607543945,-0.31603461503982544
"1,70136287318131E+018",10.633313720703125,9.586383819580078,0.4884171485900879,-0.2106897532939911
"1,70136287319132E+018",10.64332470703125,9.605537414550781,0.3447650372982025,-0.2777273952960968
"1,70136287320131E+018",10.653304931640625,9.53849983215332,0.507570743560791,-0.15322890877723694
"1,70136287321132E+018",10.663315673828125,9.394847869873047,0.3734954595565796,-0.507570743560791
"1,70136287322133E+018",10.67332666015625,9.155426979064941,0.4692635238170624,-0.22026655077934265
"1,70136287323131E+018",10.683306640625,9.519346237182617,0.5554547905921936,-0.5267243981361389
"1,70136287324132E+018",10.693317626953124,9.308655738830566,0.4405331015586853,-0.5650315880775452
"1,70136287325133E+018",10.70332861328125,9.232041358947754,0.5746083855628967,-0.24899697303771973
"1,70136287326131E+018",10.713308837890626,9.490615844726562,0.4596867263317108,-0.3734954595565796
"1,70136287327132E+018",10.723319580078124,9.404424667358398,0.4692635238170624,-0.4692635238170624
"1,70136287328133E+018",10.733330322265624,9.404424667358398,0.6416460275650024,-0.15322890877723694
"1,70136287329131E+018",10.743310791015626,9.385271072387695,0.45010992884635925,-0.6033388376235962
"1,70136287330132E+018",10.75332177734375,9.327810287475586,0.49799394607543945,-0.5650315880775452
"1,7013628733113E+018",10.763302001953125,9.452308654785156,0.3734954595565796,-0.38307225704193115
"1,70136287332131E+018",10.773312744140625,9.08838939666748,0.38307225704193115,-0.38307225704193115
"1,70136287333132E+018",10.78332373046875,9.097966194152832,0.6607996821403503,-0.3064578175544739
"1,7013628733413E+018",10.793303955078125,9.318233489990234,0.6129156351089478,-0.6607996821403503
"1,70136287335131E+018",10.803314697265625,9.327810287475586,0.31603461503982544,-0.5267243981361389
"1,70136287336133E+018",10.81332568359375,9.117119789123535,0.7565677165985107,-0.3926490843296051
"1,70136287337131E+018",10.823305908203125,9.155426979064941,0.4118026793003082,-0.6129156351089478
"1,70136287338132E+018",10.83331689453125,9.193734169006348,0.5171475410461426,-0.43095630407333374
"1,7013628733913E+018",10.843297119140624,9.404424667358398,0.6799532771110535,-0.4692635238170624
"1,70136287340131E+018",10.853307861328124,9.337387084960938,0.49799394607543945,-0.8810662031173706
"1,70136287341132E+018",10.86331884765625,9.385271072387695,0.6799532771110535,-0.5171475410461426
"1,70136287342133E+018",10.87332958984375,9.289502143859863,0.6607996821403503,-0.8523358106613159
"1,70136287343134E+018",10.88334033203125,9.21288776397705,0.47884035110473633,-0.363918662071228
"1,70136287344132E+018",10.89332080078125,9.404424667358398,0.6033388376235962,-0.19153612852096558
"1,7013628734513E+018",10.903301025390626,8.983044624328613,0.33518823981285095,-0.5267243981361389
"1,70136287346131E+018",10.913311767578126,9.078812599182129,0.6703764796257019,-0.4405331015586853
"1,70136287347132E+018",10.923322509765624,9.2033109664917,0.6703764796257019,-0.8140285611152649
"1,7013628734813E+018",10.933302978515625,9.366117477416992,0.507570743560791,-0.7374141216278076
"1,70136287349131E+018",10.94331396484375,9.567230224609375,0.5363011956214905,-0.19153612852096558
"1,70136287350132E+018",10.95332470703125,9.2033109664917,0.6416460275650024,-0.5267243981361389
"1,7013628735113E+018",10.963304931640625,9.749189376831055,0.689530074596405,-0.2106897532939911
"1,70136287352132E+018",10.97331591796875,9.576807022094727,0.5841852426528931,-0.8810662031173706
"1,70136287353133E+018",10.98332666015625,9.327810287475586,0.7086837291717529,-0.507570743560791
"1,70136287354131E+018",10.993306884765625,9.509769439697266,0.8427590131759644,-0.4596867263317108
"1,70136287355132E+018",11.00331787109375,9.318233489990234,0.4213795065879822,-0.363918662071228
"1,70136287356133E+018",11.01332861328125,9.864110946655273,0.6607996821403503,-0.22026655077934265
"1,70136287357131E+018",11.02330908203125,9.730035781860352,0.4213795065879822,-0.4405331015586853
"1,70136287358132E+018",11.033319580078125,9.634267807006836,0.8427590131759644,-0.43095630407333374
"1,7013628735913E+018",11.043300048828126,9.500192642211914,0.7374141216278076,-0.6224924325942993
"1,70136287360131E+018",11.05331103515625,9.433155059814453,0.49799394607543945,-0.5746083855628967
"1,70136287361132E+018",11.06332177734375,9.998186111450195,0.5171475410461426,-0.22026655077934265
"1,70136287362133E+018",11.07333251953125,9.576807022094727,0.4596867263317108,-0.38307225704193115
"1,70136287363131E+018",11.08331298828125,9.864110946655273,0.8427590131759644,-0.07661445438861847
"1,70136287364132E+018",11.09332373046875,9.586383819580078,0.5841852426528931,-0.43095630407333374
"1,7013628736513E+018",11.103303955078125,9.825803756713867,0.7374141216278076,-0.20111294090747833
"1,70136287366131E+018",11.113314697265626,9.47146224975586,0.5554547905921936,-0.3926490843296051
"1,70136287367133E+018",11.12332568359375,9.289502143859863,0.6129156351089478,-0.4405331015586853
"1,70136287368131E+018",11.13330615234375,9.691728591918945,0.6607996821403503,-0.10534487664699554
"1,70136287369132E+018",11.14331689453125,9.682151794433594,0.45010992884635925,-0.363918662071228
"1,7013628737013E+018",11.153297119140625,9.931148529052734,0.9002198576927185,-0.22026655077934265
"1,70136287371131E+018",11.16330810546875,9.519346237182617,0.47884035110473633,-0.26815059781074524
"1,70136287372132E+018",11.17331884765625,9.864110946655273,0.871489405632019,0.06703764945268631
"1,70136287373133E+018",11.183329833984375,9.720458984375,0.3926490843296051,-0.19153612852096558
"1,70136287374131E+018",11.19331005859375,9.931148529052734,0.7948749661445618,-0.40222588181495667
"1,70136287375132E+018",11.20332080078125,9.816226959228516,0.507570743560791,-0.2585737705230713
"1,70136287376133E+018",11.213331787109375,9.710882186889648,0.727837324142456,-0.3256114423274994
"1,70136287377131E+018",11.223311767578124,9.586383819580078,0.6512228846549988,-0.24899697303771973
"1,70136287378132E+018",11.23332275390625,9.806650161743164,0.6129156351089478,-0.507570743560791
"1,7013628737913E+018",11.24330322265625,9.950302124023438,0.6320692300796509,-0.181959331035614
"1,70136287380131E+018",11.25331396484375,10.074800491333008,0.4692635238170624,-0.14365209639072418
"1,70136287381133E+018",11.26332470703125,9.911994934082031,0.8236053586006165,-0.2585737705230713
"1,70136287382131E+018",11.27330517578125,9.892841339111328,0.4213795065879822,-0.20111294090747833
"1,70136287383132E+018",11.28331591796875,9.816226959228516,0.6320692300796509,-0.38307225704193115
"1,70136287384133E+018",11.293326904296874,9.797073364257812,0.4405331015586853,-0.3926490843296051
"1,70136287385131E+018",11.30330712890625,9.557653427124023,0.9576807022094727,-0.23942017555236816
"1,70136287386132E+018",11.31331787109375,10.065223693847656,0.4405331015586853,-0.40222588181495667
"1,7013628738713E+018",11.32329833984375,9.96945571899414,0.9768342971801758,-0.19153612852096558
"1,70136287388131E+018",11.333308837890625,9.797073364257812,0.3064578175544739,-0.181959331035614
"1,70136287389132E+018",11.34331982421875,10.218452453613281,0.6033388376235962,-0.38307225704193115
"1,7013628739013E+018",11.35330029296875,9.940725326538086,0.38307225704193115,-0.6129156351089478
"1,70136287391131E+018",11.36331103515625,10.122684478759766,1.0342950820922852,-0.7182605266571045
"1,70136287392132E+018",11.373322021484375,9.605537414550781,0.6129156351089478,-0.4596867263317108
"1,7013628739313E+018",11.38330224609375,10.02691650390625,0.8236053586006165,-0.4884171485900879
"1,70136287394131E+018",11.39331298828125,10.02691650390625,0.2585737705230713,-0.10534487664699554
"1,70136287395132E+018",11.403323974609375,10.074800491333008,0.6703764796257019,-0.40222588181495667
"1,7013628739613E+018",11.413303955078124,9.66299819946289,0.33518823981285095,-0.2106897532939911
"1,70136287397131E+018",11.42331494140625,9.739612579345703,0.9193734526634216,-0.40222588181495667
"1,70136287398133E+018",11.433325927734375,10.15141487121582,0.4692635238170624,-0.23942017555236816
"1,70136287399134E+018",11.443336669921875,10.017339706420898,0.8427590131759644,-0.6033388376235962
"1,70136287400132E+018",11.45331689453125,10.122684478759766,0.49799394607543945,-0.49799394607543945
"1,7013628740113E+018",11.46329736328125,9.586383819580078,0.5746083855628967,-0.507570743560791
"1,70136287402131E+018",11.47330810546875,10.438719749450684,0.3256114423274994,-0.4213795065879822
"1,70136287403132E+018",11.483319091796876,9.892841339111328,0.5267243981361389,-0.363918662071228
"1,7013628740413E+018",11.49329931640625,10.524910926818848,0.3926490843296051,-0.40222588181495667
"1,70136287405131E+018",11.50331005859375,9.002198219299316,0.8331822156906128,-0.26815059781074524
"1,70136287406132E+018",11.513321044921875,9.59596061706543,0.6416460275650024,-0.49799394607543945
"1,7013628740713E+018",11.523301025390625,8.753201484680176,0.12449848651885986,-0.3447650372982025
"1,70136287408131E+018",11.53331201171875,10.218452453613281,0.6416460275650024,-0.6033388376235962
"1,70136287409132E+018",11.543322998046875,8.829815864562988,0.43095630407333374,-0.12449848651885986
"1,70136287410133E+018",11.553333740234375,9.921571731567383,0.6512228846549988,-0.19153612852096558
"1,70136287411131E+018",11.563314208984375,8.580819129943848,0.33518823981285095,-0.2106897532939911
"1,70136287412132E+018",11.57332470703125,9.835380554199219,0.5841852426528931,-0.5650315880775452
"1,70136287413131E+018",11.58330517578125,8.801085472106934,0.2106897532939911,-0.49799394607543945
"1,70136287414132E+018",11.593316162109375,9.720458984375,0.6224924325942993,-0.689530074596405
"1,70136287415133E+018",11.603326904296875,9.682151794433594,0.12449848651885986,-0.3256114423274994
"1,70136287416131E+018",11.61330712890625,10.036493301391602,0.7661445140838623,-0.5554547905921936
"1,70136287417132E+018",11.623318115234374,9.835380554199219,0.31603461503982544,-0.181959331035614
"1,7013628741813E+018",11.63329833984375,9.366117477416992,0.7852981686592102,-0.47884035110473633
"1,70136287419131E+018",11.64330908203125,10.074800491333008,0.2585737705230713,-0.47884035110473633
"1,70136287420132E+018",11.65331982421875,9.241618156433105,0.24899697303771973,-0.6991068720817566
"1,7013628742113E+018",11.66330029296875,9.816226959228516,0.4692635238170624,-0.6512228846549988
"1,70136287422131E+018",11.673311279296875,8.561665534973145,0.5363011956214905,-0.14365209639072418
"1,70136287423132E+018",11.68332177734375,9.53849983215332,0.7565677165985107,-0.363918662071228
"1,7013628742413E+018",11.69330224609375,8.925583839416504,0.13407529890537262,-0.2585737705230713
"1,70136287425131E+018",11.703313232421875,10.103530883789062,0.3926490843296051,-0.5746083855628967
"1,70136287426132E+018",11.713323974609375,8.791508674621582,0.4213795065879822,-0.7086837291717529
"1,7013628742713E+018",11.72330419921875,9.701305389404297,0.8523358106613159,-0.5267243981361389
"1,70136287428131E+018",11.733315185546875,9.260771751403809,0.31603461503982544,-0.24899697303771973
"1,70136287429133E+018",11.743325927734375,10.27591323852539,0.5363011956214905,-0.2298433631658554
"1,70136287430131E+018",11.753306396484374,9.21288776397705,0.19153612852096558,0
"1,70136287431132E+018",11.76331689453125,9.366117477416992,0.6033388376235962,-0.2777273952960968
"1,70136287432133E+018",11.773327880859375,9.222464561462402,0.038307227194309235,0.07661445438861847
"1,70136287433131E+018",11.783308349609374,9.002198219299316,0.6799532771110535,-0.2585737705230713
"1,70136287434132E+018",11.793319091796874,8.973467826843262,0.22026655077934265,-0.009576806798577309
"1,7013628743513E+018",11.80329931640625,8.513781547546387,0.5554547905921936,-0.14365209639072418
"1,70136287436131E+018",11.813310302734376,9.251194953918457,0,-0.3256114423274994
"1,70136287437132E+018",11.823321044921874,8.71489429473877,0.13407529890537262,-0.13407529890537262
"1,70136287438133E+018",11.83333203125,9.96945571899414,0.28730419278144836,-0.12449848651885986
"1,70136287439131E+018",11.84331201171875,9.078812599182129,0.2298433631658554,0.12449848651885986
"1,70136287440132E+018",11.853322998046876,10.429142951965332,0.31603461503982544,-0.2968810200691223
"1,7013628744113E+018",11.863303466796875,9.040505409240723,0.13407529890537262,-0.08619125932455063
"1,70136287442131E+018",11.87331396484375,10.08437728881836,0.26815059781074524,-0.3064578175544739
"1,70136287443133E+018",11.883324951171875,8.925583839416504,0.15322890877723694,-0.4884171485900879
"1,70136287444131E+018",11.893305419921875,9.825803756713867,0.3256114423274994,-0.6033388376235962
"1,70136287445132E+018",11.903316162109375,9.155426979064941,0.09576806426048279,-0.363918662071228
"1,70136287446133E+018",11.913326904296875,9.749189376831055,0.5841852426528931,-0.13407529890537262
"1,70136287447131E+018",11.923307373046875,9.155426979064941,0.17238251864910126,-0.1628057211637497
"1,70136287448132E+018",11.933318115234375,9.452308654785156,0.49799394607543945,-0.363918662071228
"1,70136287449133E+018",11.9433291015625,9.59596061706543,-0.019153613597154617,-0.363918662071228
"1,70136287450131E+018",11.95330908203125,9.509769439697266,0.363918662071228,-0.363918662071228
"1,70136287451132E+018",11.963320068359375,9.854534149169922,0.15322890877723694,-0.2298433631658554
"1,7013628745213E+018",11.973300537109376,9.394847869873047,0.4213795065879822,-0.38307225704193115
"1,70136287453131E+018",11.983311279296874,9.96945571899414,0.28730419278144836,-0.5746083855628967
"1,70136287454132E+018",11.993322021484374,9.011775016784668,0.5171475410461426,-0.4405331015586853
"1,7013628745513E+018",12.003302490234375,9.988609313964844,0,-0.45010992884635925
"1,70136287456131E+018",12.013313232421876,9.27034854888916,0.08619125932455063,-0.22026655077934265
"1,70136287457132E+018",12.02332421875,10.113107681274414,0.2106897532939911,-0.4118026793003082
"1,7013628745813E+018",12.03330419921875,9.260771751403809,0.181959331035614,-0.24899697303771973
"1,70136287459132E+018",12.043315185546875,10.314221382141113,0.4405331015586853,-0.6129156351089478
"1,70136287460133E+018",12.053326171875,8.810662269592285,0.12449848651885986,-0.3256114423274994
"1,70136287461131E+018",12.06330615234375,9.90241813659668,0.07661445438861847,-0.6033388376235962
"1,70136287462132E+018",12.073317138671875,9.030928611755371,-0.10534487664699554,-0.20111294090747833
"1,7013628746313E+018",12.083297607421875,10.180145263671875,0.2968810200691223,-0.3064578175544739
"1,70136287464131E+018",12.093308349609375,9.576807022094727,0.1628057211637497,-0.3256114423274994
"1,70136287465132E+018",12.103319091796875,10.266336441040039,0.38307225704193115,-0.47884035110473633
"1,70136287466133E+018",12.113329833984375,9.615114212036133,0.09576806426048279,-0.4405331015586853
"1,70136287467131E+018",12.123310302734374,9.710882186889648,0.15322890877723694,-0.45010992884635925
"1,70136287468132E+018",12.1333212890625,9.528923034667969,-0.19153612852096558,-0.22026655077934265
"1,7013628746913E+018",12.14330126953125,9.605537414550781,0.4118026793003082,-0.4405331015586853
"1,70136287470131E+018",12.153312255859374,9.835380554199219,0.17238251864910126,-0.3926490843296051
"1,70136287471132E+018",12.1633232421875,9.605537414550781,0.3064578175544739,-0.5363011956214905
"1,70136287472133E+018",12.173333984375,10.160991668701172,0.05746084079146385,-0.2968810200691223
"1,70136287473131E+018",12.183314208984376,9.165003776550293,0.2585737705230713,-0.35434186458587646
"1,70136287474133E+018",12.193324951171874,9.797073364257812,0.12449848651885986,-0.23942017555236816
"1,70136287475131E+018",12.203305419921875,8.944737434387207,0.2106897532939911,-0.05746084079146385
"1,70136287476132E+018",12.21331640625,10.189722061157227,0.13407529890537262,-0.5363011956214905
"1,70136287477133E+018",12.223326904296876,8.973467826843262,-0.047884032130241394,-0.35434186458587646
"1,70136287478131E+018",12.233307373046875,9.979032516479492,0.2298433631658554,-0.6033388376235962
"1,70136287479132E+018",12.243318359375,8.877699851989746,0.06703764945268631,-0.038307227194309235
"1,70136287480133E+018",12.2533291015625,10.055646896362305,0.33518823981285095,-0.33518823981285095
"1,70136287481131E+018",12.263309326171875,9.21288776397705,0.038307227194309235,-0.06703764945268631
"1,70136287482132E+018",12.2733203125,10.266336441040039,0.05746084079146385,-0.28730419278144836
"1,70136287483133E+018",12.2833310546875,9.394847869873047,-0.019153613597154617,0.047884032130241394
"1,70136287484131E+018",12.293311279296875,9.883264541625977,0.2298433631658554,-0.31603461503982544
